onset	duration	run_number	trial_number	att_task	bar_direction	bar_period	bar_step	stim_noise_ori	stim_stair_val	response_val	probe_time	reaction_time
93509.38406	1.2059397	4	1	1	9	1	1	3	n/a	n/a	n/a	n/a
93510.59	1.2005464	4	2	1	9	1	2	3	n/a	n/a	n/a	n/a
93511.79054	1.2002912	4	3	1	9	1	3	3	n/a	n/a	n/a	n/a
93512.99083	1.2004127	4	4	1	9	1	4	3	n/a	n/a	n/a	n/a
93514.19125	1.2003929	4	5	1	9	1	5	3	n/a	n/a	n/a	n/a
93515.39164	1.2004174	4	6	1	9	1	6	3	n/a	n/a	n/a	n/a
93516.59206	1.2003466	4	7	1	9	1	7	3	n/a	n/a	n/a	n/a
93517.7924	1.2004855	4	8	1	9	1	8	3	n/a	n/a	n/a	n/a
93518.99289	1.2005248	4	9	1	9	1	9	3	n/a	n/a	n/a	n/a
93520.19341	1.2004137	4	10	1	9	1	10	3	n/a	n/a	n/a	n/a
93521.39383	1.2003733	4	11	1	9	1	11	3	n/a	n/a	n/a	n/a
93522.5942	1.2004529	4	12	1	9	1	12	3	n/a	n/a	n/a	n/a
93523.79465	1.2002624	4	13	1	9	1	13	3	n/a	n/a	n/a	n/a
93524.99492	1.2005184	4	14	1	9	1	14	3	n/a	n/a	n/a	n/a
93526.19543	1.2003878	4	15	1	9	1	15	3	n/a	n/a	n/a	n/a
93527.39582	1.2004672	4	16	1	9	1	16	3	n/a	n/a	n/a	n/a
93528.59629	1.2002664	4	17	1	1	2	1	2	11	0	93528.99626	0.6142942
93529.79656	1.8423135	4	18	1	1	2	2	2	12	0	93530.83869	-0.00964270001
93531.63887	1.2004552	4	19	1	1	2	3	2	13	0	93532.03905	0.338064
93532.83932	1.200493	4	20	1	1	2	4	1	14	1	93533.23936	0.4167797
93534.03982	1.2002705	4	21	1	1	2	5	2	14	0	93534.43986	0.4195661
93535.24009	1.2003619	4	22	1	1	2	6	2	15	1	93535.64028	0.4461365
93536.44045	1.2005726	4	23	1	1	2	7	2	15	1	93536.84078	0.4162418
93537.64102	1.2002498	4	24	1	1	2	8	1	15	1	93538.041	0.3446647
93538.84127	1.2005756	4	25	1	1	2	9	1	14	1	93539.24146	0.33186
93540.04185	1.2002331	4	26	1	1	2	10	2	14	1	93540.44184	0.4379204
93541.24208	1.2006011	4	27	1	1	2	11	1	14	0	93541.64233	0.3358035
93542.44268	1.20033	4	28	1	1	2	12	1	15	1	93542.84283	0.6148714
93543.64301	1.2003359	4	29	1	1	2	13	2	15	1	93544.04318	0.444751
93544.84335	1.2004863	4	30	1	1	2	14	2	15	1	93545.24347	0.4161504
93546.04383	1.2003678	4	31	1	1	2	15	2	14	1	93546.44399	0.515157
93547.2442	1.2004024	4	32	1	1	2	16	1	14	1	93547.64462	0.3150792
93548.4446	1.2004222	4	33	1	1	2	17	2	14	1	93548.84473	0.3350053
93549.64503	1.2004241	4	34	1	1	2	18	2	13	1	93550.04509	0.3406346
93550.84545	1.2004977	4	35	1	1	2	19	2	13	1	93551.24564	0.4374615
93552.04595	1.2002987	4	36	1	1	2	20	1	13	1	93552.44608	0.4322729
93553.24625	1.2004538	4	37	1	1	2	21	1	12	1	93553.64643	0.5147713
93554.4467	1.2003972	4	38	1	1	2	22	2	12	1	93554.84679	0.4148892
93555.6471	1.2003738	4	39	1	1	2	23	1	12	1	93556.04718	0.5149857
93556.84747	1.2004545	4	40	1	1	2	24	2	11	1	93557.24775	0.435356
93558.04793	1.2004662	4	41	1	1	2	25	2	11	0	93558.44808	0.4162143
93559.24839	1.2004561	4	42	1	1	2	26	1	12	1	93559.64849	0.5148213
93560.44885	1.2002131	4	43	1	1	2	27	1	12	1	93560.84892	0.514737
93561.64906	1.2005984	4	44	1	1	2	28	2	12	1	93562.04927	0.5149877
93562.84966	1.2003204	4	45	1	1	2	29	1	11	1	93563.24968	0.7150697
93564.04998	1.200368	4	46	1	1	2	30	2	11	1	93564.45007	0.5152929
93565.25035	1.2004194	4	47	1	1	2	31	2	11	0	93565.65044	0.4144786
93566.45077	1.2004943	4	48	1	1	2	32	2	12	1	93566.85098	0.6129666
93567.65126	1.2003008	4	49	1	9	3	1	3	n/a	n/a	n/a	n/a
93568.85156	1.2004341	4	50	1	9	3	2	3	n/a	n/a	n/a	n/a
93570.052	1.2004174	4	51	1	9	3	3	3	n/a	n/a	n/a	n/a
93571.25242	1.2003899	4	52	1	9	3	4	3	n/a	n/a	n/a	n/a
93572.4528	1.2005277	4	53	1	9	3	5	3	n/a	n/a	n/a	n/a
93573.65333	1.2003035	4	54	1	9	3	6	3	n/a	n/a	n/a	n/a
93574.85364	1.200459	4	55	1	9	3	7	3	n/a	n/a	n/a	n/a
93576.0541	1.2004882	4	56	1	9	3	8	3	n/a	n/a	n/a	n/a
93577.25458	1.2004243	4	57	1	9	3	9	3	n/a	n/a	n/a	n/a
93578.45501	1.2003133	4	58	1	9	3	10	3	n/a	n/a	n/a	n/a
93579.65532	1.2003693	4	59	1	9	3	11	3	n/a	n/a	n/a	n/a
93580.85569	1.2003924	4	60	1	9	3	12	3	n/a	n/a	n/a	n/a
93582.05608	1.2005273	4	61	1	9	3	13	3	n/a	n/a	n/a	n/a
93583.25661	1.2002701	4	62	1	9	3	14	3	n/a	n/a	n/a	n/a
93584.45688	1.2004468	4	63	1	9	3	15	3	n/a	n/a	n/a	n/a
93585.65733	1.2003636	4	64	1	9	3	16	3	n/a	n/a	n/a	n/a
93586.85769	1.2005207	4	65	1	3	4	1	2	12	n/a	93587.25784	n/a
93588.05821	1.2003435	4	66	1	3	4	2	1	12	1	93588.45834	0.5148384
93589.25855	1.2004691	4	67	1	3	4	3	2	12	0	93589.65883	0.3438754
93590.45902	1.2004217	4	68	1	3	4	4	1	13	1	93590.85907	0.5166668
93591.65945	1.2004682	4	69	1	3	4	5	1	13	1	93592.05965	0.4166036
93592.85991	1.2002642	4	70	1	3	4	6	1	13	1	93593.26002	0.5166929
93594.06018	1.2004242	4	71	1	3	4	7	2	12	1	93594.46034	0.4163523
93595.2606	1.2004449	4	72	1	3	4	8	2	12	1	93595.66074	0.5159829
93596.46105	1.200381	4	73	1	3	4	9	2	12	1	93596.86114	0.6167127
93597.66143	1.2004108	4	74	1	3	4	10	2	11	1	93598.06167	0.5161901
93598.86184	1.2005024	4	75	1	3	4	11	2	11	0	93599.26195	0.3160755
93600.06234	1.2003272	4	76	1	3	4	12	2	12	1	93600.46239	0.4184087
93601.26267	1.2005271	4	77	1	3	4	13	1	12	1	93601.66293	0.4338786
93602.4632	1.2003357	4	78	1	3	4	14	2	12	1	93602.86319	0.4161544
93603.66353	1.20042	4	79	1	3	4	15	1	11	1	93604.06372	0.4173107
93604.86395	1.2002892	4	80	1	3	4	16	1	11	1	93605.26408	0.5163908
93606.06424	1.2006071	4	81	1	3	4	17	2	11	1	93606.46443	0.5163261
93607.26485	1.20033	4	82	1	3	4	18	1	10	1	93607.66499	0.4171283
93608.46518	1.200495	4	83	1	3	4	19	2	10	1	93608.86522	0.4171027
93609.66567	1.2002977	4	84	1	3	4	20	1	10	1	93610.06563	0.417352
93610.86597	1.2004033	4	85	1	3	4	21	2	9	1	93611.2662	0.4397716
93612.06637	1.2005366	4	86	1	3	4	22	2	9	0	93612.46647	0.4168958
93613.26691	1.2002581	4	87	1	3	4	23	1	10	1	93613.66691	0.417901
93614.46717	1.2005459	4	88	1	3	4	24	2	10	1	93614.86732	0.4472061
93615.66771	1.2003359	4	89	1	3	4	25	2	10	0	93616.06782	0.4172742
93616.86805	1.2003605	4	90	1	3	4	26	2	11	1	93617.26818	0.4365047
93618.06841	1.2005208	4	91	1	3	4	27	2	11	1	93618.4686	0.5158187
93619.26893	1.200368	4	92	1	3	4	28	1	11	1	93619.66901	0.5159693
93620.4693	1.2004521	4	93	1	3	4	29	2	10	1	93620.86939	0.4169779
93621.66975	1.2003785	4	94	1	3	4	30	1	10	1	93622.06982	0.4171081
93622.87013	1.2003409	4	95	1	3	4	31	2	10	0	93623.27026	0.4161327
93624.07047	1.2004607	4	96	1	3	4	32	2	11	1	93624.47065	0.5139456
93625.27093	1.200393	4	97	1	9	5	1	3	n/a	n/a	n/a	n/a
93626.47132	1.2004563	4	98	1	9	5	2	3	n/a	n/a	n/a	n/a
93627.67178	1.2003761	4	99	1	9	5	3	3	n/a	n/a	n/a	n/a
93628.87216	1.2004873	4	100	1	9	5	4	3	n/a	n/a	n/a	n/a
93630.07264	1.2002522	4	101	1	9	5	5	3	n/a	n/a	n/a	n/a
93631.2729	1.2004242	4	102	1	9	5	6	3	n/a	n/a	n/a	n/a
93632.47332	1.2004428	4	103	1	9	5	7	3	n/a	n/a	n/a	n/a
93633.67376	1.200397	4	104	1	9	5	8	3	n/a	n/a	n/a	n/a
93634.87416	1.2004126	4	105	1	9	5	9	3	n/a	n/a	n/a	n/a
93636.07457	1.2004231	4	106	1	9	5	10	3	n/a	n/a	n/a	n/a
93637.275	1.2003339	4	107	1	9	5	11	3	n/a	n/a	n/a	n/a
93638.47533	1.2006081	4	108	1	9	5	12	3	n/a	n/a	n/a	n/a
93639.67594	1.20028	4	109	1	9	5	13	3	n/a	n/a	n/a	n/a
93640.87622	1.2005399	4	110	1	9	5	14	3	n/a	n/a	n/a	n/a
93642.07676	1.2003585	4	111	1	9	5	15	3	n/a	n/a	n/a	n/a
93643.27712	1.2003738	4	112	1	9	5	16	3	n/a	n/a	n/a	n/a
93644.47749	1.8255635	4	113	1	5	6	1	2	11	1	93645.50278	0.4473108
93646.30305	1.2004363	4	114	1	5	6	2	2	11	1	93646.70326	0.2133438
93647.50349	1.2003929	4	115	1	5	6	3	1	10	1	93647.90354	0.4153272
93648.70388	1.2003864	4	116	1	5	6	4	2	10	1	93649.10409	0.1158192
93649.90427	1.2005157	4	117	1	5	6	5	2	10	0	93650.30448	0.2352975
93651.10479	1.2003522	4	118	1	5	6	6	1	11	1	93651.5049	0.4406466
93652.30514	1.2003897	4	119	1	5	6	7	1	11	1	93652.7053	0.4165938
93653.50553	1.2005425	4	120	1	5	6	8	1	11	1	93653.90567	0.4158333
93654.70607	1.2003571	4	121	1	5	6	9	1	10	0	93655.10619	0.4104461
93655.90643	1.2004625	4	122	1	5	6	10	1	11	1	93656.3065	0.6146812
93657.10689	1.200332	4	123	1	5	6	11	1	11	1	93657.5069	0.6152796
93658.30722	1.2004624	4	124	1	5	6	12	2	11	1	93658.70735	0.5174444
93659.50768	1.2003114	4	125	1	5	6	13	2	10	0	93659.90785	0.4427684
93660.70799	1.200529	4	126	1	5	6	14	1	11	1	93661.10818	0.4157425
93661.90852	1.2004246	4	127	1	5	6	15	1	11	1	93662.30854	0.415467
93663.10895	1.2003043	4	128	1	5	6	16	1	11	1	93663.50914	0.4371811
93664.30925	1.2004394	4	129	1	5	6	17	1	10	1	93664.70948	0.5147391
93665.50969	1.2003861	4	130	1	5	6	18	1	10	1	93665.90973	0.7152497
93666.71008	1.2003222	4	131	1	5	6	19	2	10	1	93667.11025	0.4368047
93667.9104	1.2004721	4	132	1	5	6	20	2	9	1	93668.31056	0.5153308
93669.11087	1.2005047	4	133	1	5	6	21	1	9	1	93669.5111	0.6139336
93670.31138	1.2003133	4	134	1	5	6	22	1	9	n/a	93670.71147	n/a
93671.51169	1.2004639	4	135	1	5	6	23	2	9	1	93671.91197	0.7155073
93672.71215	1.2003846	4	136	1	5	6	24	1	8	1	93673.11227	0.4363332
93673.91254	1.2005274	4	137	1	5	6	25	1	8	0	93674.31263	0.2154264
93675.11307	1.2002416	4	138	1	5	6	26	1	9	1	93675.51312	0.5156176
93676.31331	1.200456	4	139	1	5	6	27	1	9	1	93676.7135	0.5151741
93677.51376	1.2003384	4	140	1	5	6	28	1	9	1	93677.91388	0.6145719
93678.7141	1.2004691	4	141	1	5	6	29	2	8	1	93679.11435	0.6152575
93679.91457	1.2004011	4	142	1	5	6	30	1	8	1	93680.31483	0.6153939
93681.11497	1.2004557	4	143	1	5	6	31	2	8	1	93681.51506	0.6144539
93682.31543	1.200498	4	144	1	5	6	32	2	7	0	93682.71552	0.4139222
93683.51593	1.2003304	4	145	1	9	7	1	3	n/a	n/a	n/a	n/a
93684.71626	1.2004142	4	146	1	9	7	2	3	n/a	n/a	n/a	n/a
93685.91667	1.2003754	4	147	1	9	7	3	3	n/a	n/a	n/a	n/a
93687.11705	1.2003301	4	148	1	9	7	4	3	n/a	n/a	n/a	n/a
93688.31738	1.2005605	4	149	1	9	7	5	3	n/a	n/a	n/a	n/a
93689.51794	1.2003497	4	150	1	9	7	6	3	n/a	n/a	n/a	n/a
93690.71829	1.2003947	4	151	1	9	7	7	3	n/a	n/a	n/a	n/a
93691.91868	1.2004124	4	152	1	9	7	8	3	n/a	n/a	n/a	n/a
93693.11909	1.20037	4	153	1	9	7	9	3	n/a	n/a	n/a	n/a
93694.31946	1.200423	4	154	1	9	7	10	3	n/a	n/a	n/a	n/a
93695.51989	1.2004295	4	155	1	9	7	11	3	n/a	n/a	n/a	n/a
93696.72032	1.2003914	4	156	1	9	7	12	3	n/a	n/a	n/a	n/a
93697.92071	1.2004874	4	157	1	9	7	13	3	n/a	n/a	n/a	n/a
93699.1212	1.2002921	4	158	1	9	7	14	3	n/a	n/a	n/a	n/a
93700.32149	1.2005892	4	159	1	9	7	15	3	n/a	n/a	n/a	n/a
93701.52208	1.2003272	4	160	1	9	7	16	3	n/a	n/a	n/a	n/a
93702.7224	1.2005017	4	161	1	7	8	1	2	8	n/a	93703.12263	n/a
93703.92291	1.200321	4	162	1	7	8	2	2	8	1	93704.32291	0.416215
93705.12323	1.2003793	4	163	1	7	8	3	1	8	0	93705.52334	0.3434739
93706.32361	1.2005879	4	164	1	7	8	4	2	9	1	93706.72373	0.5169833
93707.52419	1.2002684	4	165	1	7	8	5	2	9	1	93707.92419	0.6162894
93708.72446	1.2005126	4	166	1	7	8	6	1	9	1	93709.12454	0.3163564
93709.92497	1.225377	4	167	1	7	8	7	2	8	1	93710.34996	0.417048
93711.15035	1.2003018	4	168	1	7	8	8	2	8	1	93711.55047	0.4166112
93712.35065	1.2004399	4	169	1	7	8	9	1	8	1	93712.75077	0.4172798
93713.55109	1.200386	4	170	1	7	8	10	1	7	1	93713.95124	0.4437586
93714.75148	1.2003553	4	171	1	7	8	11	1	7	1	93715.15163	0.4472979
93715.95183	1.2005139	4	172	1	7	8	12	1	7	1	93716.35208	0.5160928
93717.15235	1.2004196	4	173	1	7	8	13	2	6	1	93717.55238	0.4434905
93718.35277	1.2003621	4	174	1	7	8	14	2	6	0	93718.75298	0.1369535
93719.55313	1.2004738	4	175	1	7	8	15	1	7	1	93719.95331	0.1422658
93720.7536	1.2003445	4	176	1	7	8	16	1	7	0	93721.15374	0.3172918
93721.95395	1.2004302	4	177	1	7	8	17	2	8	1	93722.35408	0.516135
93723.15438	1.2004203	4	178	1	7	8	18	2	8	1	93723.55448	0.5165746
93724.3548	1.2003841	4	179	1	7	8	19	1	8	1	93724.75503	0.4449573
93725.55518	1.2003418	4	180	1	7	8	20	2	7	1	93725.95539	0.316095
93726.75552	1.200602	4	181	1	7	8	21	2	7	0	93727.15585	0.445726
93727.95613	1.2003293	4	182	1	7	8	22	1	8	0	93728.35619	0.4174258
93729.15646	1.2004843	4	183	1	7	8	23	2	9	1	93729.55664	0.6161614
93730.35694	1.2003619	4	184	1	7	8	24	1	9	1	93730.75695	0.6165247
93731.5573	1.2004478	4	185	1	7	8	25	2	9	1	93731.95743	0.5177059
93732.75775	1.2004119	4	186	1	7	8	26	1	8	1	93733.1579	0.5164371
93733.95816	1.2002158	4	187	1	7	8	27	2	8	1	93734.35822	0.5160398
93735.15838	1.2004537	4	188	1	7	8	28	2	8	0	93735.55849	0.7098275
93736.35883	1.2004939	4	189	1	7	8	29	1	9	0	93736.75904	0.3379296
93737.55933	1.2003763	4	190	1	7	8	30	2	10	0	93737.95951	0.1417429
93738.7597	1.2003624	4	191	1	7	8	31	1	11	0	93739.15984	0.3383295
93739.96006	1.2004962	4	192	1	7	8	32	1	12	1	93740.36039	0.3136996
93741.16056	1.2003148	4	193	1	9	9	1	3	n/a	n/a	n/a	n/a
93742.36088	1.2004738	4	194	1	9	9	2	3	n/a	n/a	n/a	n/a
93743.56135	1.2004074	4	195	1	9	9	3	3	n/a	n/a	n/a	n/a
93744.76176	1.2087268	4	196	1	9	9	4	3	n/a	n/a	n/a	n/a
93745.97048	1.2005155	4	197	1	9	9	5	3	n/a	n/a	n/a	n/a
93747.171	1.2003697	4	198	1	9	9	6	3	n/a	n/a	n/a	n/a
93748.37137	1.2004573	4	199	1	9	9	7	3	n/a	n/a	n/a	n/a
93749.57183	1.2002796	4	200	1	9	9	8	3	n/a	n/a	n/a	n/a
93750.77211	1.2004793	4	201	1	9	9	9	3	n/a	n/a	n/a	n/a
93751.97258	1.2004468	4	202	1	9	9	10	3	n/a	n/a	n/a	n/a
93753.17303	1.2004066	4	203	1	9	9	11	3	n/a	n/a	n/a	n/a
93754.37344	1.2003398	4	204	1	9	9	12	3	n/a	n/a	n/a	n/a
93755.57378	1.2005408	4	205	1	9	9	13	3	n/a	n/a	n/a	n/a
93756.77432	1.2003157	4	206	1	9	9	14	3	n/a	n/a	n/a	n/a
93757.97463	1.2004938	4	207	1	9	9	15	3	n/a	n/a	n/a	n/a
93759.17513	1.2003589	4	208	1	9	9	16	3	n/a	n/a	n/a	n/a
