onset	duration	run_number	trial_number	att_task	bar_direction	bar_period	bar_step	stim_noise_ori	stim_stair_val	response_val	probe_time	reaction_time
5308.203881	1.1989152	2	1	1	9	1	1	3	n/a	n/a	n/a	n/a
5309.402797	1.1998867	2	2	1	9	1	2	3	n/a	n/a	n/a	n/a
5310.602683	1.199925878	2	3	1	9	1	3	3	n/a	n/a	n/a	n/a
5311.802609	1.199735922	2	4	1	9	1	4	3	n/a	n/a	n/a	n/a
5313.002345	1.1998467	2	5	1	9	1	5	3	n/a	n/a	n/a	n/a
5314.202192	1.1998816	2	6	1	9	1	6	3	n/a	n/a	n/a	n/a
5315.402074	1.1998539	2	7	1	9	1	7	3	n/a	n/a	n/a	n/a
5316.601927	1.1999102	2	8	1	9	1	8	3	n/a	n/a	n/a	n/a
5317.801838	1.1998298	2	9	1	9	1	9	3	n/a	n/a	n/a	n/a
5319.001667	1.199937913	2	10	1	9	1	10	3	n/a	n/a	n/a	n/a
5320.201605	1.199851287	2	11	1	9	1	11	3	n/a	n/a	n/a	n/a
5321.401457	1.1997295	2	12	1	9	1	12	3	n/a	n/a	n/a	n/a
5322.601186	1.199996178	2	13	1	9	1	13	3	n/a	n/a	n/a	n/a
5323.801182	1.199782322	2	14	1	9	1	14	3	n/a	n/a	n/a	n/a
5325.000965	1.1998113	2	15	1	9	1	15	3	n/a	n/a	n/a	n/a
5326.200776	1.1999015	2	16	1	9	1	16	3	n/a	n/a	n/a	n/a
5327.400677	1.1997924	2	17	1	1	2	1	2	5	n/a	5327.800576	n/a
5328.60047	1.1998789	2	18	1	1	2	2	1	5	1	5329.000341	0.1100673
5329.800349	1.1999373	2	19	1	1	2	3	1	5	n/a	5330.200285	n/a
5331.000286	1.1998096	2	20	1	1	2	4	1	5	1	5331.40018	0.710486
5332.200096	1.1997689	2	21	1	1	2	5	2	5	0	5332.600084	0.7102362
5333.399865	1.1998044	2	22	1	1	2	6	2	6	1	5333.799899	0.5106729
5334.599669	1.2000731	2	23	1	1	2	7	2	6	0	5334.999706	0.5124578
5335.799742	1.1997783	2	24	1	1	2	8	2	7	1	5336.199547	0.4101883
5336.99952	1.199937069	2	25	1	1	2	9	2	7	n/a	5337.399487	n/a
5338.199457	1.199795631	2	26	1	1	2	10	2	7	1	5338.599336	0.7102069
5339.399253	1.1998433	2	27	1	1	2	11	2	7	0	5339.799164	0.5141177
5340.599096	1.1997807	2	28	1	1	2	12	2	8	1	5340.999029	0.5104821
5341.798877	1.1999193	2	29	1	1	2	13	1	8	1	5342.198862	0.5108833
5342.998796	1.1999224	2	30	1	1	2	14	1	8	1	5343.398768	0.6102607
5344.198719	1.1997547	2	31	1	1	2	15	1	7	1	5344.598473	0.71034
5345.398473	1.1998287	2	32	1	1	2	16	2	7	1	5345.798406	0.6090117
5346.598302	1.2000051	2	33	1	1	2	17	1	7	1	5346.998313	0.6096375
5347.798307	1.1997537	2	34	1	1	2	18	2	6	1	5348.198177	0.6094818
5348.998061	1.1998306	2	35	1	1	2	19	2	6	1	5349.398004	0.7093546
5350.197891	1.1998755	2	36	1	1	2	20	2	6	1	5350.597836	0.6095441
5351.397767	1.1998562	2	37	1	1	2	21	2	5	n/a	5351.797691	n/a
5352.597623	1.1998593	2	38	1	1	2	22	1	5	1	5352.997591	0.4094311
5353.797483	1.199827	2	39	1	1	2	23	1	5	1	5354.19753	0.6094948
5354.997309	1.1999577	2	40	1	1	2	24	2	5	n/a	5355.397276	n/a
5356.197267	1.1998276	2	41	1	1	2	25	2	5	n/a	5356.597188	n/a
5357.397095	1.1998603	2	42	1	1	2	26	1	5	0	5357.797013	0.1333962
5358.596955	1.1998041	2	43	1	1	2	27	1	6	n/a	5358.996796	n/a
5359.796759	1.199885	2	44	1	1	2	28	2	6	0	5360.19661	0.5100829
5360.996644	1.1999216	2	45	1	1	2	29	2	7	1	5361.396604	0.6096249
5362.196566	1.1997288	2	46	1	1	2	30	1	7	1	5362.596411	0.6092959
5363.396295	1.1999598	2	47	1	1	2	31	1	7	n/a	5363.796314	n/a
5364.596254	1.1996685	2	48	1	1	2	32	1	7	n/a	5364.996196	n/a
5365.795923	1.1999978	2	49	1	9	3	1	3	n/a	n/a	n/a	n/a
5366.995921	1.1999267	2	50	1	9	3	2	3	n/a	n/a	n/a	n/a
5368.195847	1.199891556	2	51	1	9	3	3	3	n/a	n/a	n/a	n/a
5369.395739	1.199747944	2	52	1	9	3	4	3	n/a	n/a	n/a	n/a
5370.595487	1.1998519	2	53	1	9	3	5	3	n/a	n/a	n/a	n/a
5371.795339	1.1998559	2	54	1	9	3	6	3	n/a	n/a	n/a	n/a
5372.995195	1.1998779	2	55	1	9	3	7	3	n/a	n/a	n/a	n/a
5374.195073	1.1998698	2	56	1	9	3	8	3	n/a	n/a	n/a	n/a
5375.394942	1.199843	2	57	1	9	3	9	3	n/a	n/a	n/a	n/a
5376.594785	1.1998845	2	58	1	9	3	10	3	n/a	n/a	n/a	n/a
5377.79467	1.199931235	2	59	1	9	3	11	3	n/a	n/a	n/a	n/a
5378.994601	1.199751165	2	60	1	9	3	12	3	n/a	n/a	n/a	n/a
5380.194352	1.1998258	2	61	1	9	3	13	3	n/a	n/a	n/a	n/a
5381.394178	1.199756	2	62	1	9	3	14	3	n/a	n/a	n/a	n/a
5382.593934	1.1999437	2	63	1	9	3	15	3	n/a	n/a	n/a	n/a
5383.793878	1.1999731	2	64	1	9	3	16	3	n/a	n/a	n/a	n/a
5384.993851	1.1998756	2	65	1	3	4	1	2	7	0	5385.39376	0.6148164
5386.193726	1.1998445	2	66	1	3	4	2	1	8	1	5386.59354	0.6188186
5387.393571	1.199879578	2	67	1	3	4	3	1	8	1	5387.793448	0.6183621
5388.593451	1.199642922	2	68	1	3	4	4	1	8	1	5388.993272	0.5255225
5389.793094	1.1999254	2	69	1	3	4	5	1	7	1	5390.193094	0.7086545
5390.993019	1.1999076	2	70	1	3	4	6	1	7	1	5391.393	0.7183756
5392.192926	1.199872	2	71	1	3	4	7	2	7	1	5392.592742	0.6187601
5393.392799	1.1998939	2	72	1	3	4	8	2	6	n/a	5393.792711	n/a
5394.592692	1.1997271	2	73	1	3	4	9	1	6	1	5394.992592	0.1405052
5395.792419	1.1998317	2	74	1	3	4	10	1	6	1	5396.19232	0.5245756
5396.992251	1.1998014	2	75	1	3	4	11	2	6	n/a	5397.392284	n/a
5398.192053	1.2000154	2	76	1	3	4	12	1	6	n/a	5398.592072	n/a
5399.392068	1.1997675	2	77	1	3	4	13	1	6	1	5399.792	0.7161379
5400.591836	1.200039	2	78	1	3	4	14	1	5	n/a	5400.991704	n/a
5401.791874	1.1997171	2	79	1	3	4	15	1	5	n/a	5402.191762	n/a
5402.991592	1.1999124	2	80	1	3	4	16	1	5	1	5403.391508	0.7171711
5404.191504	1.1997939	2	81	1	3	4	17	2	5	1	5404.591414	0.5265537
5405.391298	1.199893	2	82	1	3	4	18	2	5	1	5405.791303	0.6189265
5406.591191	1.1998636	2	83	1	3	4	19	2	4	n/a	5406.991105	n/a
5407.791055	1.1998609	2	84	1	3	4	20	2	4	1	5408.190868	0.5302746
5408.990915	1.1998528	2	85	1	3	4	21	2	4	0	5409.390868	0.0355462
5410.190768	1.1998576	2	86	1	3	4	22	2	5	0	5410.590608	0.0117985
5411.390626	1.1998882	2	87	1	3	4	23	1	6	n/a	5411.790556	n/a
5412.590514	1.1996841	2	88	1	3	4	24	1	6	1	5412.990433	0.4397064
5413.790198	1.1998548	2	89	1	3	4	25	1	6	n/a	5414.19032	n/a
5414.990053	1.1999436	2	90	1	3	4	26	1	6	0	5415.390171	0.0501453
5416.189997	1.1998692	2	91	1	3	4	27	2	7	1	5416.590015	0.61873
5417.389866	1.1999415	2	92	1	3	4	28	2	7	n/a	5417.789824	n/a
5418.589807	1.1998069	2	93	1	3	4	29	1	7	1	5418.989666	0.7183631
5419.789614	1.1999005	2	94	1	3	4	30	1	7	n/a	5420.189493	n/a
5420.989515	1.199806	2	95	1	3	4	31	2	7	0	5421.389405	0.4416175
5422.189321	1.199898	2	96	1	3	4	32	2	8	1	5422.589237	0.5290478
5423.389219	1.1998322	2	97	1	9	5	1	3	n/a	n/a	n/a	n/a
5424.589051	1.1998684	2	98	1	9	5	2	3	n/a	n/a	n/a	n/a
5425.788919	1.1999164	2	99	1	9	5	3	3	n/a	n/a	n/a	n/a
5426.988836	1.1997396	2	100	1	9	5	4	3	n/a	n/a	n/a	n/a
5428.188575	1.1997585	2	101	1	9	5	5	3	n/a	n/a	n/a	n/a
5429.388334	1.2000868	2	102	1	9	5	6	3	n/a	n/a	n/a	n/a
5430.588421	1.1998003	2	103	1	9	5	7	3	n/a	n/a	n/a	n/a
5431.788221	1.1998129	2	104	1	9	5	8	3	n/a	n/a	n/a	n/a
5432.988034	1.1998508	2	105	1	9	5	9	3	n/a	n/a	n/a	n/a
5434.187885	1.1998985	2	106	1	9	5	10	3	n/a	n/a	n/a	n/a
5435.387783	1.1998572	2	107	1	9	5	11	3	n/a	n/a	n/a	n/a
5436.58764	1.199849	2	108	1	9	5	12	3	n/a	n/a	n/a	n/a
5437.787489	1.199872	2	109	1	9	5	13	3	n/a	n/a	n/a	n/a
5438.987361	1.1998783	2	110	1	9	5	14	3	n/a	n/a	n/a	n/a
5440.18724	1.1998423	2	111	1	9	5	15	3	n/a	n/a	n/a	n/a
5441.387082	1.1998319	2	112	1	9	5	16	3	n/a	n/a	n/a	n/a
5442.586914	1.1998887	2	113	1	5	6	1	1	8	1	5442.986955	0.4163322485
5443.786802	1.1997124	2	114	1	5	6	2	2	8	0	5444.186798	0.2376826
5444.986515	1.1999577	2	115	1	5	6	3	1	9	1	5445.386611	0.6163379
5446.186472	1.1998658	2	116	1	5	6	4	2	9	1	5446.586439	0.6079489
5447.386338	1.1998329	2	117	1	5	6	5	2	9	1	5447.786267	0.6169407
5448.586171	1.1998575	2	118	1	5	6	6	1	8	1	5448.98614	0.7162018
5449.786029	1.1998674	2	119	1	5	6	7	1	8	n/a	5450.185891	n/a
5450.985896	1.1998148	2	120	1	5	6	8	2	8	1	5451.385831	0.6167059
5452.185711	1.1998903	2	121	1	5	6	9	1	8	1	5452.585715	0.720877
5453.385601	1.1998427	2	122	1	5	6	10	1	7	1	5453.785595	0.7204444
5454.585444	1.1999005	2	123	1	5	6	11	2	7	1	5454.98533	0.616645
5455.785344	1.1997689	2	124	1	5	6	12	1	7	1	5456.185119	0.6181245
5456.985113	1.1998925	2	125	1	5	6	13	2	6	n/a	5457.385166	n/a
5458.185006	1.199987173	2	126	1	5	6	14	2	6	0	5458.585062	0.2273534
5459.384993	1.199788527	2	127	1	5	6	15	2	7	1	5459.784828	0.5160492
5460.584781	1.1998385	2	128	1	5	6	16	1	7	1	5460.984778	0.536176
5461.78462	1.1998104	2	129	1	5	6	17	2	7	1	5462.184497	0.7145227
5462.98443	1.1998807	2	130	1	5	6	18	1	6	n/a	5463.384383	n/a
5464.184311	1.1998296	2	131	1	5	6	19	1	6	n/a	5464.584272	n/a
5465.384141	1.199864	2	132	1	5	6	20	2	6	1	5465.784233	0.5351328653
5466.584005	1.1998752	2	133	1	5	6	21	1	6	1	5466.983929	0.6190464
5467.78388	1.1998565	2	134	1	5	6	22	2	6	n/a	5468.183858	n/a
5468.983736	1.1998797	2	135	1	5	6	23	1	6	n/a	5469.383715	n/a
5470.183616	1.1998289	2	136	1	5	6	24	1	6	n/a	5470.583421	n/a
5471.383445	1.1998395	2	137	1	5	6	25	1	6	n/a	5471.783445	n/a
5472.583285	1.199989578	2	138	1	5	6	26	1	6	1	5472.983234	-0.0594634
5473.783274	1.199850239	2	139	1	5	6	27	2	5	0	5474.183214	0.3340195
5474.983124	1.199761983	2	140	1	5	6	28	1	6	1	5475.383039	0.6116919
5476.182886	1.1998383	2	141	1	5	6	29	2	6	n/a	5476.582775	n/a
5477.382725	1.1997382	2	142	1	5	6	30	2	6	n/a	5477.782681	n/a
5478.582463	1.2000058	2	143	1	5	6	31	1	6	n/a	5478.982491	n/a
5479.782469	1.199824	2	144	1	5	6	32	1	6	1	5480.182502	0.7164093
5480.982293	1.1999666	2	145	1	9	7	1	3	n/a	n/a	n/a	n/a
5482.182259	1.1997578	2	146	1	9	7	2	3	n/a	n/a	n/a	n/a
5483.382017	1.1999087	2	147	1	9	7	3	3	n/a	n/a	n/a	n/a
5484.581926	1.1998188	2	148	1	9	7	4	3	n/a	n/a	n/a	n/a
5485.781745	1.1998732	2	149	1	9	7	5	3	n/a	n/a	n/a	n/a
5486.981618	1.1998019	2	150	1	9	7	6	3	n/a	n/a	n/a	n/a
5488.18142	1.1998606	2	151	1	9	7	7	3	n/a	n/a	n/a	n/a
5489.38128	1.1998044	2	152	1	9	7	8	3	n/a	n/a	n/a	n/a
5490.581085	1.1999261	2	153	1	9	7	9	3	n/a	n/a	n/a	n/a
5491.781011	1.1998367	2	154	1	9	7	10	3	n/a	n/a	n/a	n/a
5492.980847	1.1999122	2	155	1	9	7	11	3	n/a	n/a	n/a	n/a
5494.18076	1.1996864	2	156	1	9	7	12	3	n/a	n/a	n/a	n/a
5495.380446	1.1999547	2	157	1	9	7	13	3	n/a	n/a	n/a	n/a
5496.580401	1.1999673	2	158	1	9	7	14	3	n/a	n/a	n/a	n/a
5497.780368	1.1998398	2	159	1	9	7	15	3	n/a	n/a	n/a	n/a
5498.980208	1.1998114	2	160	1	9	7	16	3	n/a	n/a	n/a	n/a
5500.180019	1.1998207	2	161	1	7	8	1	1	6	1	5500.579995	0.5178991
5501.37984	1.1998565	2	162	1	7	8	2	2	5	1	5501.779692	0.6189978
5502.579696	1.199803	2	163	1	7	8	3	2	5	0	5502.979646	0.4075202
5503.779499	1.1999188	2	164	1	7	8	4	1	6	n/a	5504.179548	n/a
5504.979418	1.1997637	2	165	1	7	8	5	1	6	n/a	5505.379257	n/a
5506.179182	1.1999113	2	166	1	7	8	6	1	6	1	5506.57928	0.7088668
5507.379093	1.1999855	2	167	1	7	8	7	2	6	1	5507.77911	0.6080685
5508.579079	1.199821	2	168	1	7	8	8	2	6	1	5508.978971	0.6202592
5509.7789	1.19981	2	169	1	7	8	9	2	5	n/a	5510.178848	n/a
5510.97871	1.1998532	2	170	1	7	8	10	1	5	n/a	5511.378777	n/a
5512.178563	1.1999084	2	171	1	7	8	11	2	5	n/a	5512.578509	n/a
5513.378471	1.1998263	2	172	1	7	8	12	1	5	n/a	5513.778383	n/a
5514.578298	1.1998732	2	173	1	7	8	13	2	5	n/a	5514.978207	n/a
5515.778171	1.1998078	2	174	1	7	8	14	1	5	1	5516.178092	0.5246621
5516.977979	1.1998861	2	175	1	7	8	15	1	5	1	5517.37797	0.6185094
5518.177865	1.1998345	2	176	1	7	8	16	1	5	n/a	5518.577783	n/a
5519.377699	1.1998475	2	177	1	7	8	17	1	5	0	5519.777609	-0.075489
5520.577547	1.1998753	2	178	1	7	8	18	1	6	1	5520.977432	0.6112952
5521.777422	1.1998965	2	179	1	7	8	19	2	6	1	5522.177413	0.6189919
5522.977319	1.1999133	2	180	1	7	8	20	1	6	1	5523.37721	0.6082808
5524.177232	1.1997956	2	181	1	7	8	21	2	5	n/a	5524.577072	n/a
5525.377027	1.1997989	2	182	1	7	8	22	1	5	1	5525.776913	0.5214317
5526.576826	1.1997567	2	183	1	7	8	23	1	5	1	5526.976875	0.6186029
5527.776583	1.199958	2	184	1	7	8	24	1	5	0	5528.176714	0.3083463
5528.976541	1.1998932	2	185	1	7	8	25	2	6	0	5529.376499	0.3186242
5530.176434	1.1998663	2	186	1	7	8	26	1	7	1	5530.57635	0.6188657
5531.376301	1.1997518	2	187	1	7	8	27	2	7	1	5531.776225	0.6143987
5532.576052	1.1999355	2	188	1	7	8	28	2	7	n/a	5532.97594	n/a
5533.775988	1.1998553	2	189	1	7	8	29	1	7	1	5534.175925	0.619003
5534.975843	1.1998789	2	190	1	7	8	30	2	6	1	5535.375748	0.6140466
5536.175722	1.1998119	2	191	1	7	8	31	1	6	1	5536.57552	0.4299267
5537.375534	1.1998433	2	192	1	7	8	32	2	6	1	5537.775533	0.613551
5538.575377	1.1998634	2	193	1	9	9	1	3	n/a	n/a	n/a	n/a
5539.775241	1.1998794	2	194	1	9	9	2	3	n/a	n/a	n/a	n/a
5540.97512	1.199869	2	195	1	9	9	3	3	n/a	n/a	n/a	n/a
5542.174989	1.1998094	2	196	1	9	9	4	3	n/a	n/a	n/a	n/a
5543.374798	1.1997856	2	197	1	9	9	5	3	n/a	n/a	n/a	n/a
5544.574584	1.2000291	2	198	1	9	9	6	3	n/a	n/a	n/a	n/a
5545.774613	1.1997486	2	199	1	9	9	7	3	n/a	n/a	n/a	n/a
5546.974362	1.1999201	2	200	1	9	9	8	3	n/a	n/a	n/a	n/a
5548.174282	1.1998769	2	201	1	9	9	9	3	n/a	n/a	n/a	n/a
5549.374159	1.1998156	2	202	1	9	9	10	3	n/a	n/a	n/a	n/a
5550.573974	1.1998356	2	203	1	9	9	11	3	n/a	n/a	n/a	n/a
5551.77381	1.1998778	2	204	1	9	9	12	3	n/a	n/a	n/a	n/a
5552.973688	1.1997501	2	205	1	9	9	13	3	n/a	n/a	n/a	n/a
5554.173438	1.200051682	2	206	1	9	9	14	3	n/a	n/a	n/a	n/a
5555.373489	1.199765618	2	207	1	9	9	15	3	n/a	n/a	n/a	n/a
5556.573255	1.1998614	2	208	1	9	9	16	3	n/a	n/a	n/a	n/a
