onset	duration	run_number	trial_number	att_task	bar_direction	bar_period	bar_step	stim_noise_ori	stim_stair_val	response_val	probe_time	reaction_time
27375.15531	1.2040403	4	1	1	9	1	1	3	n/a	n/a	n/a	n/a
27376.35935	1.2004578	4	2	1	9	1	2	3	n/a	n/a	n/a	n/a
27377.5598	1.2003625	4	3	1	9	1	3	3	n/a	n/a	n/a	n/a
27378.76017	1.2003557	4	4	1	9	1	4	3	n/a	n/a	n/a	n/a
27379.96052	1.2004497	4	5	1	9	1	5	3	n/a	n/a	n/a	n/a
27381.16097	1.2005361	4	6	1	9	1	6	3	n/a	n/a	n/a	n/a
27382.36151	1.2004316	4	7	1	9	1	7	3	n/a	n/a	n/a	n/a
27383.56194	1.2002991	4	8	1	9	1	8	3	n/a	n/a	n/a	n/a
27384.76224	1.2004097	4	9	1	9	1	9	3	n/a	n/a	n/a	n/a
27385.96265	1.2003542	4	10	1	9	1	10	3	n/a	n/a	n/a	n/a
27387.163	1.2003988	4	11	1	9	1	11	3	n/a	n/a	n/a	n/a
27388.3634	1.2005138	4	12	1	9	1	12	3	n/a	n/a	n/a	n/a
27389.56391	1.2003639	4	13	1	9	1	13	3	n/a	n/a	n/a	n/a
27390.76428	1.2003653	4	14	1	9	1	14	3	n/a	n/a	n/a	n/a
27391.96464	1.2004318	4	15	1	9	1	15	3	n/a	n/a	n/a	n/a
27393.16508	1.2003673	4	16	1	9	1	16	3	n/a	n/a	n/a	n/a
27394.36544	1.2004832	4	17	1	1	2	1	1	3	n/a	27394.76564	n/a
27395.56593	1.2003696	4	18	1	1	2	2	2	3	0	27395.96602	0.7170076
27396.7663	1.2004866	4	19	1	1	2	3	1	4	1	27397.16646	0.6153479
27397.96678	1.2003726	4	20	1	1	2	4	1	4	1	27398.36694	0.4389344
27399.16716	1.200408	4	21	1	1	2	5	1	4	n/a	27399.56727	n/a
27400.36756	1.2004219	4	22	1	1	2	6	1	4	1	27400.76771	0.6151502
27401.56799	1.2003795	4	23	1	1	2	7	2	3	0	27401.96804	0.4199012
27402.76836	1.2004764	4	24	1	1	2	8	2	4	1	27403.16852	0.5162514
27403.96884	1.2003701	4	25	1	1	2	9	2	4	0	27404.36888	0.436391
27405.16921	1.2004152	4	26	1	1	2	10	2	5	1	27405.56936	0.4167493
27406.36963	1.2003536	4	27	1	1	2	11	2	5	0	27406.76984	0.5143899
27407.56998	1.2004617	4	28	1	1	2	12	2	6	1	27407.97018	0.6155329
27408.77044	1.2004637	4	29	1	1	2	13	1	6	1	27409.17058	0.5154844
27409.97091	1.2003607	4	30	1	1	2	14	2	6	1	27410.37109	0.4359006
27411.17127	1.2003911	4	31	1	1	2	15	1	5	1	27411.5714	0.4161504
27412.37166	1.2004365	4	32	1	1	2	16	2	5	1	27412.77183	0.5192833
27413.57209	1.2004015	4	33	1	1	2	17	2	5	1	27413.97224	0.5153314
27414.7725	1.2004581	4	34	1	1	2	18	1	4	1	27415.17267	0.4158734
27415.97295	1.2003164	4	35	1	1	2	19	1	4	1	27416.37312	0.5142534
27417.17327	1.2004834	4	36	1	1	2	20	2	4	1	27417.57341	0.4150979
27418.37375	1.200411	4	37	1	1	2	21	2	3	1	27418.77392	0.6151983
27419.57416	1.2003504	4	38	1	1	2	22	1	3	1	27419.97423	0.6143152
27420.77451	1.2004359	4	39	1	1	2	23	1	3	n/a	27421.17476	n/a
27421.97495	1.2003856	4	40	1	1	2	24	1	3	1	27422.37507	0.7152706
27423.17534	1.2004052	4	41	1	1	2	25	2	2	1	27423.57551	0.7148522
27424.37574	1.200391	4	42	1	1	2	26	2	2	1	27424.77592	0.6143952
27425.57613	1.2004185	4	43	1	1	2	27	1	2	1	27425.97637	0.6146983
27426.77655	1.2004656	4	44	1	1	2	28	1	2	0	27427.17668	0.315243
27427.97702	1.2004228	4	45	1	1	2	29	2	3	0	27428.3771	0.4168856
27429.17744	1.2004093	4	46	1	1	2	30	2	4	0	27429.57757	0.4148544
27430.37785	1.200404	4	47	1	1	2	31	1	5	0	27430.77799	0.5137385
27431.57825	1.2004068	4	48	1	1	2	32	1	6	1	27431.97839	0.5117766
27432.77866	1.2003839	4	49	1	9	3	1	3	n/a	n/a	n/a	n/a
27433.97904	1.2004428	4	50	1	9	3	2	3	n/a	n/a	n/a	n/a
27435.17949	1.2004616	4	51	1	9	3	3	3	n/a	n/a	n/a	n/a
27436.37995	1.2003654	4	52	1	9	3	4	3	n/a	n/a	n/a	n/a
27437.58031	1.2004082	4	53	1	9	3	5	3	n/a	n/a	n/a	n/a
27438.78072	1.2004007	4	54	1	9	3	6	3	n/a	n/a	n/a	n/a
27439.98112	1.2004317	4	55	1	9	3	7	3	n/a	n/a	n/a	n/a
27441.18155	1.2004494	4	56	1	9	3	8	3	n/a	n/a	n/a	n/a
27442.382	1.2003491	4	57	1	9	3	9	3	n/a	n/a	n/a	n/a
27443.58235	1.200455	4	58	1	9	3	10	3	n/a	n/a	n/a	n/a
27444.78281	1.2003828	4	59	1	9	3	11	3	n/a	n/a	n/a	n/a
27445.98319	1.200394	4	60	1	9	3	12	3	n/a	n/a	n/a	n/a
27447.18358	1.2004282	4	61	1	9	3	13	3	n/a	n/a	n/a	n/a
27448.38401	1.2003668	4	62	1	9	3	14	3	n/a	n/a	n/a	n/a
27449.58438	1.2005207	4	63	1	9	3	15	3	n/a	n/a	n/a	n/a
27450.7849	1.2003407	4	64	1	9	3	16	3	n/a	n/a	n/a	n/a
27451.98524	1.2004082	4	65	1	3	4	1	1	6	0	27452.38538	0.4337926
27453.18565	1.2004116	4	66	1	3	4	2	2	7	0	27453.58576	0.5148513
27454.38606	1.200415	4	67	1	3	4	3	2	8	1	27454.78618	0.4162888
27455.58647	1.2003708	4	68	1	3	4	4	2	8	0	27455.98661	0.3158334
27456.78685	1.2004303	4	69	1	3	4	5	2	9	1	27457.18706	0.437721
27457.98728	1.2004168	4	70	1	3	4	6	2	9	1	27458.38741	0.416114
27459.18769	1.2003869	4	71	1	3	4	7	2	9	1	27459.58788	0.4159045
27460.38808	1.2004512	4	72	1	3	4	8	2	8	1	27460.78826	0.4392896
27461.58853	1.2004524	4	73	1	3	4	9	2	8	1	27461.98866	0.3165694
27462.78898	1.2003518	4	74	1	3	4	10	1	8	0	27463.18902	0.4546591
27463.98934	1.2004622	4	75	1	3	4	11	1	9	1	27464.38954	0.7167974
27465.1898	1.2003895	4	76	1	3	4	12	1	9	1	27465.58985	0.5163584
27466.39019	1.2004001	4	77	1	3	4	13	2	9	1	27466.79028	0.4164721
27467.59059	1.2004682	4	78	1	3	4	14	2	8	n/a	27467.99067	n/a
27468.79106	1.2003577	4	79	1	3	4	15	1	8	1	27469.1911	0.4169519
27469.99141	1.200362	4	80	1	3	4	16	1	8	1	27470.39149	0.444459
27471.19177	1.2004767	4	81	1	3	4	17	2	8	1	27471.59196	0.3442229
27472.39225	1.2004297	4	82	1	3	4	18	2	7	1	27472.79237	0.5155628
27473.59268	1.200389	4	83	1	3	4	19	1	7	1	27473.99276	0.4411641
27474.79307	1.2004193	4	84	1	3	4	20	2	7	1	27475.19318	0.4168092
27475.99349	1.2003845	4	85	1	3	4	21	2	6	1	27476.39361	0.516876
27477.19387	1.2004321	4	86	1	3	4	22	1	6	1	27477.59403	0.5160051
27478.39431	1.2003948	4	87	1	3	4	23	2	6	1	27478.79438	0.5155078
27479.5947	1.2005258	4	88	1	3	4	24	2	5	1	27479.99488	0.4162543
27480.79523	1.2002926	4	89	1	3	4	25	2	5	1	27481.19521	0.3445358
27481.99552	1.2004045	4	90	1	3	4	26	2	5	n/a	27482.39566	n/a
27483.19592	1.2004169	4	91	1	3	4	27	1	5	0	27483.59615	0.4175433
27484.39634	1.2003413	4	92	1	3	4	28	1	6	1	27484.79649	0.6157156
27485.59668	1.2005552	4	93	1	3	4	29	2	6	n/a	27485.99687	n/a
27486.79724	1.200355	4	94	1	3	4	30	1	6	1	27487.19727	0.7168392
27487.99759	1.2004034	4	95	1	3	4	31	1	6	0	27488.39772	0.6149453
27489.198	1.2004052	4	96	1	3	4	32	1	7	1	27489.59817	0.6132675
27490.3984	1.2003585	4	97	1	9	5	1	3	n/a	n/a	n/a	n/a
27491.59876	1.2004738	4	98	1	9	5	2	3	n/a	n/a	n/a	n/a
27492.79923	1.200384	4	99	1	9	5	3	3	n/a	n/a	n/a	n/a
27493.99962	1.2004735	4	100	1	9	5	4	3	n/a	n/a	n/a	n/a
27495.20009	1.2003742	4	101	1	9	5	5	3	n/a	n/a	n/a	n/a
27496.40046	1.2004685	4	102	1	9	5	6	3	n/a	n/a	n/a	n/a
27497.60093	1.2003519	4	103	1	9	5	7	3	n/a	n/a	n/a	n/a
27498.80129	1.2004064	4	104	1	9	5	8	3	n/a	n/a	n/a	n/a
27500.00169	1.2003798	4	105	1	9	5	9	3	n/a	n/a	n/a	n/a
27501.20207	1.2004448	4	106	1	9	5	10	3	n/a	n/a	n/a	n/a
27502.40252	1.2004074	4	107	1	9	5	11	3	n/a	n/a	n/a	n/a
27503.60292	1.2004388	4	108	1	9	5	12	3	n/a	n/a	n/a	n/a
27504.80336	1.2003185	4	109	1	9	5	13	3	n/a	n/a	n/a	n/a
27506.00368	1.2004265	4	110	1	9	5	14	3	n/a	n/a	n/a	n/a
27507.20411	1.2004696	4	111	1	9	5	15	3	n/a	n/a	n/a	n/a
27508.40458	1.2004574	4	112	1	9	5	16	3	n/a	n/a	n/a	n/a
27509.60503	1.2003209	4	113	1	5	6	1	1	7	0	27510.00505	0.4139245
27510.80536	1.2004861	4	114	1	5	6	2	1	8	1	27511.20553	0.3719762
27512.00584	1.200361	4	115	1	5	6	3	1	8	1	27512.40594	0.6147927
27513.2062	1.2004042	4	116	1	5	6	4	2	8	1	27513.60637	0.5140726
27514.40661	1.2004252	4	117	1	5	6	5	2	7	1	27514.80675	0.7155092
27515.60703	1.2003878	4	118	1	5	6	6	2	7	1	27516.0072	0.6143521
27516.80742	1.2004105	4	119	1	5	6	7	2	7	1	27517.20758	0.5142107
27518.00783	1.2004722	4	120	1	5	6	8	2	6	0	27518.40797	0.4409586
27519.2083	1.2003549	4	121	1	5	6	9	1	7	1	27519.6084	0.5143791
27520.40866	1.200455	4	122	1	5	6	10	1	7	1	27520.80881	0.6147626
27521.60911	1.2004199	4	123	1	5	6	11	1	7	1	27522.00934	0.4335921
27522.80953	1.2003927	4	124	1	5	6	12	2	6	1	27523.20958	0.5144357
27524.00992	1.2004153	4	125	1	5	6	13	2	6	0	27524.41011	0.5144733
27525.21034	1.2003227	4	126	1	5	6	14	1	7	0	27525.61046	0.6149012
27526.41066	1.2005317	4	127	1	5	6	15	1	8	1	27526.81083	0.4149049
27527.61119	1.2003243	4	128	1	5	6	16	1	8	1	27528.01133	0.5150483
27528.81152	1.2004509	4	129	1	5	6	17	2	8	1	27529.21169	0.4151743
27530.01197	1.2004038	4	130	1	5	6	18	1	7	1	27530.41211	0.314686
27531.21237	1.2004461	4	131	1	5	6	19	2	7	1	27531.61252	0.4425879
27532.41282	1.2003469	4	132	1	5	6	20	2	7	1	27532.81299	0.5143086
27533.61317	1.2004571	4	133	1	5	6	21	2	6	1	27534.01333	0.6147224
27534.81362	1.2004023	4	134	1	5	6	22	1	6	1	27535.21369	0.5146031
27536.01403	1.2004129	4	135	1	5	6	23	2	6	1	27536.41433	0.7155323
27537.21444	1.2003288	4	136	1	5	6	24	2	5	n/a	27537.61453	n/a
27538.41477	1.2005474	4	137	1	5	6	25	1	5	n/a	27538.81496	n/a
27539.61531	1.2003516	4	138	1	5	6	26	2	5	0	27540.01542	0.0168314
27540.81567	1.2004657	4	139	1	5	6	27	2	6	0	27541.21582	0.2148342
27542.01613	1.2004352	4	140	1	5	6	28	1	7	0	27542.41633	0.5142911
27543.21657	1.2003465	4	141	1	5	6	29	1	8	1	27543.61663	0.6144837
27544.41691	1.2004363	4	142	1	5	6	30	2	8	1	27544.81709	0.5146913
27545.61735	1.2003192	4	143	1	5	6	31	1	8	1	27546.01745	0.4141161
27546.81767	1.2004641	4	144	1	5	6	32	2	7	0	27547.21788	0.5129562
27548.01813	1.2003585	4	145	1	9	7	1	3	n/a	n/a	n/a	n/a
27549.21849	1.2004471	4	146	1	9	7	2	3	n/a	n/a	n/a	n/a
27550.41894	1.2004172	4	147	1	9	7	3	3	n/a	n/a	n/a	n/a
27551.61936	1.2003688	4	148	1	9	7	4	3	n/a	n/a	n/a	n/a
27552.81973	1.2005664	4	149	1	9	7	5	3	n/a	n/a	n/a	n/a
27554.02029	1.200351	4	150	1	9	7	6	3	n/a	n/a	n/a	n/a
27555.22064	1.200375	4	151	1	9	7	7	3	n/a	n/a	n/a	n/a
27556.42102	1.2005012	4	152	1	9	7	8	3	n/a	n/a	n/a	n/a
27557.62152	1.2002762	4	153	1	9	7	9	3	n/a	n/a	n/a	n/a
27558.82179	1.2005692	4	154	1	9	7	10	3	n/a	n/a	n/a	n/a
27560.02236	1.2002955	4	155	1	9	7	11	3	n/a	n/a	n/a	n/a
27561.22266	1.2003653	4	156	1	9	7	12	3	n/a	n/a	n/a	n/a
27562.42303	1.2004108	4	157	1	9	7	13	3	n/a	n/a	n/a	n/a
27563.62344	1.2004431	4	158	1	9	7	14	3	n/a	n/a	n/a	n/a
27564.82388	1.2004163	4	159	1	9	7	15	3	n/a	n/a	n/a	n/a
27566.0243	1.2003952	4	160	1	9	7	16	3	n/a	n/a	n/a	n/a
27567.22469	1.2004792	4	161	1	7	8	1	1	8	1	27567.6248	0.614461
27568.42517	1.2003925	4	162	1	7	8	2	2	8	1	27568.82527	0.3417383
27569.62556	1.2003883	4	163	1	7	8	3	2	8	0	27570.02567	0.4169524
27570.82595	1.2003622	4	164	1	7	8	4	1	9	1	27571.22604	0.5156073
27572.02631	1.2004155	4	165	1	7	8	5	1	9	1	27572.42649	0.5166008
27573.22673	1.2005019	4	166	1	7	8	6	2	9	1	27573.62687	0.4169003
27574.42723	1.2002906	4	167	1	7	8	7	2	8	1	27574.82741	0.5159077
27575.62752	1.2005509	4	168	1	7	8	8	1	8	1	27576.02773	0.4458529
27576.82807	1.2003252	4	169	1	7	8	9	1	8	1	27577.2282	0.4355866
27578.0284	1.2004316	4	170	1	7	8	10	1	7	1	27578.42859	0.4179643
27579.22883	1.2003912	4	171	1	7	8	11	1	7	1	27579.62896	0.4471531
27580.42922	1.2004109	4	172	1	7	8	12	2	7	0	27580.82933	0.5160371
27581.62963	1.2004778	4	173	1	7	8	13	2	8	1	27582.02979	0.4166085
27582.83011	1.200356	4	174	1	7	8	14	1	8	1	27583.23027	0.4382504
27584.03046	1.2004204	4	175	1	7	8	15	2	8	1	27584.43059	0.5168043
27585.23088	1.200402	4	176	1	7	8	16	1	7	1	27585.63107	0.315529
27586.43129	1.2004214	4	177	1	7	8	17	1	7	1	27586.83142	0.417202
27587.63171	1.2004481	4	178	1	7	8	18	1	7	1	27588.03185	0.4426136
27588.83216	1.2421047	4	179	1	7	8	19	2	6	1	27589.27393	0.5153478
27590.07426	1.2003658	4	180	1	7	8	20	2	6	0	27590.47425	0.5152187
27591.27463	1.2004463	4	181	1	7	8	21	1	7	1	27591.67477	0.516617
27592.47507	1.2004526	4	182	1	7	8	22	1	7	1	27592.87519	0.5161118
27593.67553	1.2001601	4	183	1	7	8	23	1	7	1	27594.07558	0.4374224
27594.87569	1.2005501	4	184	1	7	8	24	2	6	1	27595.27598	0.5153111
27596.07624	1.2003912	4	185	1	7	8	25	2	6	0	27596.47646	0.5151678
27597.27663	1.200499	4	186	1	7	8	26	1	7	1	27597.67679	0.6162447
27598.47713	1.2003895	4	187	1	7	8	27	2	7	1	27598.87729	0.6162324
27599.67752	1.2003523	4	188	1	7	8	28	1	7	1	27600.07765	0.4161999
27600.87787	1.200476	4	189	1	7	8	29	2	6	1	27601.27813	0.5151332
27602.07834	1.2003949	4	190	1	7	8	30	1	6	1	27602.47849	0.516378
27603.27874	1.2004395	4	191	1	7	8	31	2	6	1	27603.67885	0.5150627
27604.47918	1.2003589	4	192	1	7	8	32	1	5	1	27604.87933	0.5140147
27605.67954	1.2004501	4	193	1	9	9	1	3	n/a	n/a	n/a	n/a
27606.87999	1.200462	4	194	1	9	9	2	3	n/a	n/a	n/a	n/a
27608.08045	1.2003359	4	195	1	9	9	3	3	n/a	n/a	n/a	n/a
27609.28078	1.2004315	4	196	1	9	9	4	3	n/a	n/a	n/a	n/a
27610.48122	1.2003552	4	197	1	9	9	5	3	n/a	n/a	n/a	n/a
27611.68157	1.2004002	4	198	1	9	9	6	3	n/a	n/a	n/a	n/a
27612.88197	1.2004287	4	199	1	9	9	7	3	n/a	n/a	n/a	n/a
27614.0824	1.2004047	4	200	1	9	9	8	3	n/a	n/a	n/a	n/a
27615.28281	1.2004556	4	201	1	9	9	9	3	n/a	n/a	n/a	n/a
27616.48326	1.2003691	4	202	1	9	9	10	3	n/a	n/a	n/a	n/a
27617.68363	1.2004919	4	203	1	9	9	11	3	n/a	n/a	n/a	n/a
27618.88412	1.2003543	4	204	1	9	9	12	3	n/a	n/a	n/a	n/a
27620.08448	1.2003745	4	205	1	9	9	13	3	n/a	n/a	n/a	n/a
27621.28485	1.2004798	4	206	1	9	9	14	3	n/a	n/a	n/a	n/a
27622.48533	1.2004376	4	207	1	9	9	15	3	n/a	n/a	n/a	n/a
27623.68577	1.2003294	4	208	1	9	9	16	3	n/a	n/a	n/a	n/a
