onset	duration	run_number	trial_number	bar_direction	bar_period	bar_step	stim_noise_ori	trial_offset	stim_stair_val	response_val	probe_time	reaction_time
1934.654819	1.1993709	1	1	9	1	1	3	1935.85419	n/a	n/a	n/a	n/a
1935.85419	1.1998209	1	2	9	1	2	3	1937.054011	n/a	n/a	n/a	n/a
1937.054011	1.199836	1	3	9	1	3	3	1938.253847	n/a	n/a	n/a	n/a
1938.253847	1.1998652	1	4	9	1	4	3	1939.453712	n/a	n/a	n/a	n/a
1939.453712	1.1997565	1	5	9	1	5	3	1940.653469	n/a	n/a	n/a	n/a
1940.653469	1.1998376	1	6	9	1	6	3	1941.853306	n/a	n/a	n/a	n/a
1941.853306	1.1998645	1	7	9	1	7	3	1943.053171	n/a	n/a	n/a	n/a
1943.053171	1.1997925	1	8	9	1	8	3	1944.252963	n/a	n/a	n/a	n/a
1944.252963	1.1998237	1	9	9	1	9	3	1945.452787	n/a	n/a	n/a	n/a
1945.452787	1.1997987	1	10	9	1	10	3	1946.652586	n/a	n/a	n/a	n/a
1946.652586	1.1999188	1	11	9	1	11	3	1947.852505	n/a	n/a	n/a	n/a
1947.852505	1.1997668	1	12	9	1	12	3	1949.052271	n/a	n/a	n/a	n/a
1949.052271	1.1998311	1	13	9	1	13	3	1950.252103	n/a	n/a	n/a	n/a
1950.252103	1.1998079	1	14	9	1	14	3	1951.45191	n/a	n/a	n/a	n/a
1951.45191	1.1998336	1	15	9	1	15	3	1952.651744	n/a	n/a	n/a	n/a
1952.651744	1.1997954	1	16	9	1	16	3	1953.851539	n/a	n/a	n/a	n/a
1953.851539	1.199942318	1	17	1	2	1	1	1955.051482	9	n/a	1954.251485	n/a
1955.051482	1.199785882	1	18	1	2	2	2	1956.251268	9	n/a	1955.451315	n/a
1956.251268	1.1997823	1	19	1	2	3	1	1957.45105	9	n/a	1956.651161	n/a
1957.45105	1.1998473	1	20	1	2	4	1	1958.650897	9	n/a	1957.851	n/a
1958.650897	1.1997714	1	21	1	2	5	2	1959.850669	9	n/a	1959.050804	n/a
1959.850669	1.1997682	1	22	1	2	6	2	1961.050437	9	n/a	1960.250615	n/a
1961.050437	1.1998934	1	23	1	2	7	1	1962.25033	9	n/a	1961.450543	n/a
1962.25033	1.1998519	1	24	1	2	8	1	1963.450182	9	n/a	1962.650291	n/a
1963.450182	1.1997987	1	25	1	2	9	2	1964.649981	9	1	1963.850105	0.7053734
1964.649981	1.1998294	1	26	1	2	10	1	1965.84981	9	1	1965.049931	0.6058001
1965.84981	1.1997936	1	27	1	2	11	1	1967.049604	9	1	1966.24975	0.7096524
1967.049604	1.1999431	1	28	1	2	12	1	1968.249547	8	0	1967.449639	0.6116458
1968.249547	1.1997414	1	29	1	2	13	2	1969.449288	9	n/a	1968.649432	n/a
1969.449288	1.1998229	1	30	1	2	14	2	1970.649111	9	1	1969.849236	0.7116549
1970.649111	1.199919177	1	31	1	2	15	1	1971.84903	9	1	1971.049095	0.5126597
1971.84903	1.199729423	1	32	1	2	16	1	1973.04876	9	0	1972.248884	0.4310167
1973.04876	1.199912241	1	33	1	2	17	2	1974.248672	10	1	1973.448696	0.4112356
1974.248672	1.199731459	1	34	1	2	18	1	1975.448404	10	1	1974.648591	0.4312047
1975.448404	1.1998386	1	35	1	2	19	2	1976.648242	10	1	1975.848252	0.3318569
1976.648242	1.1998022	1	36	1	2	20	2	1977.848044	9	1	1977.048277	0.5119144227
1977.848044	1.1998479	1	37	1	2	21	1	1979.047892	9	0	1978.248012	0.6115991
1979.047892	1.1997976	1	38	1	2	22	2	1980.24769	10	1	1979.447872	0.6120533
1980.24769	1.1997927	1	39	1	2	23	2	1981.447482	10	1	1980.64764	0.7092737
1981.447482	1.1997276	1	40	1	2	24	2	1982.64721	10	n/a	1981.847477	n/a
1982.64721	1.1998542	1	41	1	2	25	2	1983.847064	10	1	1983.047304	0.7069551
1983.847064	1.1999496	1	42	1	2	26	2	1985.047014	9	n/a	1984.247127	n/a
1985.047014	1.1998082	1	43	1	2	27	2	1986.246822	9	n/a	1985.446967	n/a
1986.246822	1.1997845	1	44	1	2	28	2	1987.446607	9	n/a	1986.646757	n/a
1987.446607	1.1999738	1	45	1	2	29	2	1988.64658	9	1	1987.846682	0.7103492819
1988.64658	1.1997739	1	46	1	2	30	1	1989.846354	9	1	1989.046421	0.5152741
1989.846354	1.199802	1	47	1	2	31	1	1991.046156	9	0	1990.246237	0.4113191
1991.046156	1.1998216	1	48	1	2	32	1	1992.245978	10	0	1991.44606	0.5142871
1992.245978	1.1998372	1	49	9	3	1	3	1993.445815	n/a	n/a	n/a	n/a
1993.445815	1.199873941	1	50	9	3	2	3	1994.645689	n/a	n/a	n/a	n/a
1994.645689	1.199724259	1	51	9	3	3	3	1995.845413	n/a	n/a	n/a	n/a
1995.845413	1.1998266	1	52	9	3	4	3	1997.04524	n/a	n/a	n/a	n/a
1997.04524	1.1998619	1	53	9	3	5	3	1998.245102	n/a	n/a	n/a	n/a
1998.245102	1.1998372	1	54	9	3	6	3	1999.444939	n/a	n/a	n/a	n/a
1999.444939	1.199869609	1	55	9	3	7	3	2000.644809	n/a	n/a	n/a	n/a
2000.644809	1.199670691	1	56	9	3	8	3	2001.844479	n/a	n/a	n/a	n/a
2001.844479	1.199855	1	57	9	3	9	3	2003.044334	n/a	n/a	n/a	n/a
2003.044334	1.1999145	1	58	9	3	10	3	2004.244249	n/a	n/a	n/a	n/a
2004.244249	1.1998211	1	59	9	3	11	3	2005.44407	n/a	n/a	n/a	n/a
2005.44407	1.1997895	1	60	9	3	12	3	2006.643859	n/a	n/a	n/a	n/a
2006.643859	1.1997773	1	61	9	3	13	3	2007.843637	n/a	n/a	n/a	n/a
2007.843637	1.19986	1	62	9	3	14	3	2009.043497	n/a	n/a	n/a	n/a
2009.043497	1.1998246	1	63	9	3	15	3	2010.243321	n/a	n/a	n/a	n/a
2010.243321	1.199824	1	64	9	3	16	3	2011.443145	n/a	n/a	n/a	n/a
2011.443145	1.199812	1	65	3	4	1	1	2012.642957	11	0	2011.843083	0.61914
2012.642957	1.199928332	1	66	3	4	2	1	2013.842886	12	1	2013.042791	0.5326778
2013.842886	1.199727068	1	67	3	4	3	2	2015.042613	12	1	2014.242735	0.3222422
2015.042613	1.1998742	1	68	3	4	4	2	2016.242487	12	0	2015.442579	0.0304643
2016.242487	1.1997813	1	69	3	4	5	1	2017.442268	13	1	2016.642416	0.7211244
2017.442268	1.1998288	1	70	3	4	6	1	2018.642097	13	1	2017.842115	0.7211524
2018.642097	1.199829	1	71	3	4	7	1	2019.841926	13	1	2019.042073	0.529638
2019.841926	1.1998499	1	72	3	4	8	1	2021.041776	12	1	2020.24195	0.5328835227
2021.041776	1.1998311	1	73	3	4	9	2	2022.241607	12	1	2021.441719	0.5287066
2022.241607	1.1996996	1	74	3	4	10	2	2023.441307	12	0	2022.641515	0.3330279
2023.441307	1.1999417	1	75	3	4	11	1	2024.641248	13	0	2023.841325	n/a
2024.641248	1.1997959	1	76	3	4	12	1	2025.841044	14	1	2025.04116	0.6186238
2025.841044	1.199908341	1	77	3	4	13	2	2027.040953	14	1	2026.241035	0.4187248
2027.040953	1.199819614	1	78	3	4	14	2	2028.240772	14	0	2027.440859	0.2430708
2028.240772	1.199786845	1	79	3	4	15	2	2029.440559	15	1	2028.64068	0.4190834
2029.440559	1.1998218	1	80	3	4	16	2	2030.640381	15	1	2029.840453	0.7193558
2030.640381	1.1998401	1	81	3	4	17	1	2031.840221	15	1	2031.040318	0.4193131
2031.840221	1.1998583	1	82	3	4	18	1	2033.040079	14	1	2032.240147	0.4413463
2033.040079	1.1998057	1	83	3	4	19	1	2034.239885	14	0	2033.439903	0.3408724
2034.239885	1.1997186	1	84	3	4	20	2	2035.439603	15	1	2034.63975	0.4099576
2035.439603	1.199879	1	85	3	4	21	2	2036.639482	15	0	2035.839453	0.4180489
2036.639482	1.199866	1	86	3	4	22	2	2037.839348	15	1	2037.039264	0.6209007
2037.839348	1.1997805	1	87	3	4	23	1	2039.039129	15	1	2038.23918	0.4184289
2039.039129	1.199890255	1	88	3	4	24	1	2040.239019	15	1	2039.439027	0.5388803
2040.239019	1.199767245	1	89	3	4	25	1	2041.438787	14	1	2040.638961	0.5319947227
2041.438787	1.1996828	1	90	3	4	26	1	2042.638469	14	1	2041.838718	0.6111911
2042.638469	1.1999794	1	91	3	4	27	2	2043.838449	14	1	2043.038568	0.5314094
2043.838449	1.1997718	1	92	3	4	28	2	2045.038221	13	0	2044.238374	0.5324906
2045.038221	1.1998332	1	93	3	4	29	1	2046.238054	14	1	2045.438154	0.7187415
2046.238054	1.1998246	1	94	3	4	30	1	2047.437878	14	1	2046.638085	0.7209092455
2047.437878	1.1998738	1	95	3	4	31	2	2048.637752	14	1	2047.837907	0.4149866047
2048.637752	1.1998202	1	96	3	4	32	2	2049.837572	13	0	2049.037694	0.7182004
2049.837572	1.1998147	1	97	9	5	1	3	2051.037387	n/a	n/a	n/a	n/a
2051.037387	1.1998345	1	98	9	5	2	3	2052.237222	n/a	n/a	n/a	n/a
2052.237222	1.1997746	1	99	9	5	3	3	2053.436996	n/a	n/a	n/a	n/a
2053.436996	1.1998774	1	100	9	5	4	3	2054.636874	n/a	n/a	n/a	n/a
2054.636874	1.1998252	1	101	9	5	5	3	2055.836699	n/a	n/a	n/a	n/a
2055.836699	1.1997795	1	102	9	5	6	3	2057.036478	n/a	n/a	n/a	n/a
2057.036478	1.1998249	1	103	9	5	7	3	2058.236303	n/a	n/a	n/a	n/a
2058.236303	1.1998918	1	104	9	5	8	3	2059.436195	n/a	n/a	n/a	n/a
2059.436195	1.199843618	1	105	9	5	9	3	2060.636039	n/a	n/a	n/a	n/a
2060.636039	1.199735082	1	106	9	5	10	3	2061.835774	n/a	n/a	n/a	n/a
2061.835774	1.1996911	1	107	9	5	11	3	2063.035465	n/a	n/a	n/a	n/a
2063.035465	1.1999639	1	108	9	5	12	3	2064.235429	n/a	n/a	n/a	n/a
2064.235429	1.1998441	1	109	9	5	13	3	2065.435273	n/a	n/a	n/a	n/a
2065.435273	1.1998087	1	110	9	5	14	3	2066.635081	n/a	n/a	n/a	n/a
2066.635081	1.1998593	1	111	9	5	15	3	2067.834941	n/a	n/a	n/a	n/a
2067.834941	1.1997887	1	112	9	5	16	3	2069.034729	n/a	n/a	n/a	n/a
2069.034729	1.1998298	1	113	5	6	1	1	2070.234559	14	1	2069.434673	0.7193235
2070.234559	1.199907755	1	114	5	6	2	2	2071.434467	14	n/a	2070.634495	n/a
2071.434467	1.199730945	1	115	5	6	3	2	2072.634198	14	n/a	2071.834217	n/a
2072.634198	1.199914918	1	116	5	6	4	1	2073.834113	14	n/a	2073.034151	n/a
2073.834113	1.199746882	1	117	5	6	5	1	2075.03386	14	1	2074.233959	n/a
2075.03386	1.1997234	1	118	5	6	6	2	2076.233583	14	1	2075.433667	0.4409284
2076.233583	1.199913	1	119	5	6	7	2	2077.433496	13	1	2076.633484	0.6205551
2077.433496	1.199824	1	120	5	6	8	1	2078.63332	13	1	2077.833491	0.6200387
2078.63332	1.1998064	1	121	5	6	9	2	2079.833127	13	1	2079.033201	0.6209506
2079.833127	1.199822	1	122	5	6	10	2	2081.032949	12	1	2080.23307	0.6125381
2081.032949	1.1997636	1	123	5	6	11	1	2082.232712	12	1	2081.432915	0.5252245
2082.232712	1.199912	1	124	5	6	12	2	2083.432624	12	1	2082.632768	0.5259758
2083.432624	1.19986	1	125	5	6	13	1	2084.632484	11	1	2083.832562	0.4205089
2084.632484	1.1997548	1	126	5	6	14	1	2085.832239	11	1	2085.032479	0.5256693
2085.832239	1.1998635	1	127	5	6	15	1	2087.032102	11	1	2086.232167	0.5187695
2087.032102	1.1997986	1	128	5	6	16	1	2088.231901	10	1	2087.432025	0.5189257
2088.231901	1.1998695	1	129	5	6	17	2	2089.43177	10	1	2088.631832	0.5182517
2089.43177	1.1997809	1	130	5	6	18	1	2090.631551	10	1	2089.831593	0.5209737
2090.631551	1.1998338	1	131	5	6	19	1	2091.831385	9	1	2091.031493	0.5200997
2091.831385	1.1998169	1	132	5	6	20	2	2093.031202	9	1	2092.231371	0.4196192
2093.031202	1.1998318	1	133	5	6	21	2	2094.231034	9	1	2093.431153	0.4204929
2094.231034	1.1998851	1	134	5	6	22	2	2095.430919	8	0	2094.63094	0.520577
2095.430919	1.1997613	1	135	5	6	23	2	2096.63068	9	1	2095.830803	0.4192808
2096.63068	1.1998416	1	136	5	6	24	1	2097.830522	9	1	2097.03047	0.4205204
2097.830522	1.1998585	1	137	5	6	25	2	2099.03038	9	1	2098.23046	0.4204504
2099.03038	1.1997957	1	138	5	6	26	2	2100.230176	8	1	2099.430166	0.6208728
2100.230176	1.1998074	1	139	5	6	27	1	2101.429984	8	1	2100.63001	0.4208954
2101.429984	1.1997046	1	140	5	6	28	2	2102.629688	8	1	2101.829951	0.5220081
2102.629688	1.1999661	1	141	5	6	29	2	2103.829654	7	0	2103.029751	0.6203675
2103.829654	1.1997758	1	142	5	6	30	1	2105.02943	8	0	2104.229531	0.5257089
2105.02943	1.1998509	1	143	5	6	31	2	2106.229281	9	0	2105.429273	0.5216248
2106.229281	1.1998371	1	144	5	6	32	2	2107.429118	10	1	2106.629232	0.4089076
2107.429118	1.1998095	1	145	9	7	1	3	2108.628927	n/a	n/a	n/a	n/a
2108.628927	1.1998428	1	146	9	7	2	3	2109.82877	n/a	n/a	n/a	n/a
2109.82877	1.1998059	1	147	9	7	3	3	2111.028576	n/a	n/a	n/a	n/a
2111.028576	1.1998157	1	148	9	7	4	3	2112.228392	n/a	n/a	n/a	n/a
2112.228392	1.1998518	1	149	9	7	5	3	2113.428244	n/a	n/a	n/a	n/a
2113.428244	1.1998188	1	150	9	7	6	3	2114.628062	n/a	n/a	n/a	n/a
2114.628062	1.1998419	1	151	9	7	7	3	2115.827904	n/a	n/a	n/a	n/a
2115.827904	1.1998204	1	152	9	7	8	3	2117.027725	n/a	n/a	n/a	n/a
2117.027725	1.19981	1	153	9	7	9	3	2118.227535	n/a	n/a	n/a	n/a
2118.227535	1.199759	1	154	9	7	10	3	2119.427294	n/a	n/a	n/a	n/a
2119.427294	1.1998852	1	155	9	7	11	3	2120.627179	n/a	n/a	n/a	n/a
2120.627179	1.1999001	1	156	9	7	12	3	2121.827079	n/a	n/a	n/a	n/a
2121.827079	1.1996303	1	157	9	7	13	3	2123.026709	n/a	n/a	n/a	n/a
2123.026709	1.1999858	1	158	9	7	14	3	2124.226695	n/a	n/a	n/a	n/a
2124.226695	1.1997845	1	159	9	7	15	3	2125.42648	n/a	n/a	n/a	n/a
2125.42648	1.1998907	1	160	9	7	16	3	2126.62637	n/a	n/a	n/a	n/a
2126.62637	1.1997569	1	161	7	8	1	1	2127.826127	10	n/a	2127.026246	n/a
2127.826127	1.1998238	1	162	7	8	2	2	2129.025951	10	0	2128.226169	n/a
2129.025951	1.1998224	1	163	7	8	3	1	2130.225773	11	0	2129.425864	0.1360998
2130.225773	1.1998242	1	164	7	8	4	1	2131.425598	12	1	2130.625672	0.6215634
2131.425598	1.1998671	1	165	7	8	5	2	2132.625465	12	1	2131.825539	0.7218698
2132.625465	1.1998151	1	166	7	8	6	1	2133.82528	12	1	2133.025397	0.6223654
2133.82528	1.1997934	1	167	7	8	7	1	2135.025073	11	1	2134.225289	0.5290540682
2135.025073	1.1998208	1	168	7	8	8	1	2136.224894	11	1	2135.425041	0.6219642
2136.224894	1.1999283	1	169	7	8	9	1	2137.424822	11	1	2136.624842	0.7218013
2137.424822	1.1997289	1	170	7	8	10	2	2138.624551	10	1	2137.824673	0.616631
2138.624551	1.1998159	1	171	7	8	11	1	2139.824367	10	1	2139.024413	0.6178205
2139.824367	1.1998569	1	172	7	8	12	1	2141.024224	10	1	2140.224295	0.5227552
2141.024224	1.1996641	1	173	7	8	13	2	2142.223888	9	1	2141.42413	0.5208055
2142.223888	1.1999474	1	174	7	8	14	2	2143.423836	9	1	2142.623946	0.6107919
2143.423836	1.1998242	1	175	7	8	15	1	2144.62366	9	1	2143.823772	0.4166614
2144.62366	1.1997857	1	176	7	8	16	2	2145.823446	8	0	2145.02361	0.4418125
2145.823446	1.1998526	1	177	7	8	17	2	2147.023298	9	1	2146.223412	0.5113338
2147.023298	1.1998527	1	178	7	8	18	2	2148.223151	9	1	2147.423165	0.7218899
2148.223151	1.199915477	1	179	7	8	19	2	2149.423066	9	n/a	2148.623065	n/a
2149.423066	1.199754323	1	180	7	8	20	1	2150.622821	9	1	2149.822917	0.6185734
2150.622821	1.1997979	1	181	7	8	21	1	2151.822618	8	1	2151.022745	0.6113389
2151.822618	1.1998286	1	182	7	8	22	2	2153.022447	8	n/a	2152.222506	n/a
2153.022447	1.1998304	1	183	7	8	23	2	2154.222278	8	n/a	2153.422478	n/a
2154.222278	1.1998167	1	184	7	8	24	1	2155.422094	8	n/a	2154.622111	n/a
2155.422094	1.1998242	1	185	7	8	25	1	2156.621918	8	n/a	2155.821902	n/a
2156.621918	1.1998711	1	186	7	8	26	1	2157.821789	8	n/a	2157.021903	n/a
2157.821789	1.1997687	1	187	7	8	27	1	2159.021558	8	0	2158.221702	n/a
2159.021558	1.1998386	1	188	7	8	28	2	2160.221397	9	n/a	2159.421391	n/a
2160.221397	1.19969	1	189	7	8	29	1	2161.421087	9	n/a	2160.621336	n/a
2161.421087	1.1998369	1	190	7	8	30	2	2162.620924	9	n/a	2161.821129	n/a
2162.620924	1.1999443	1	191	7	8	31	1	2163.820868	9	n/a	2163.021008	n/a
2163.820868	1.1998292	1	192	7	8	32	2	2165.020697	9	n/a	2164.220771	n/a
2165.020697	1.1998499	1	193	9	9	1	3	2166.220547	n/a	n/a	n/a	n/a
2166.220547	1.1998449	1	194	9	9	2	3	2167.420392	n/a	n/a	n/a	n/a
2167.420392	1.1997251	1	195	9	9	3	3	2168.620117	n/a	n/a	n/a	n/a
2168.620117	1.1998831	1	196	9	9	4	3	2169.82	n/a	n/a	n/a	n/a
2169.82	1.1998264	1	197	9	9	5	3	2171.019827	n/a	n/a	n/a	n/a
2171.019827	1.1998532	1	198	9	9	6	3	2172.21968	n/a	n/a	n/a	n/a
2172.21968	1.1998094	1	199	9	9	7	3	2173.419489	n/a	n/a	n/a	n/a
2173.419489	1.1998501	1	200	9	9	8	3	2174.619339	n/a	n/a	n/a	n/a
2174.619339	1.1998169	1	201	9	9	9	3	2175.819156	n/a	n/a	n/a	n/a
2175.819156	1.1998239	1	202	9	9	10	3	2177.01898	n/a	n/a	n/a	n/a
2177.01898	1.1997892	1	203	9	9	11	3	2178.218769	n/a	n/a	n/a	n/a
2178.218769	1.1998045	1	204	9	9	12	3	2179.418574	n/a	n/a	n/a	n/a
2179.418574	1.1998492	1	205	9	9	13	3	2180.618423	n/a	n/a	n/a	n/a
2180.618423	1.1998261	1	206	9	9	14	3	2181.818249	n/a	n/a	n/a	n/a
2181.818249	1.1997003	1	207	9	9	15	3	2183.017949	n/a	n/a	n/a	n/a
2183.017949	1.1999336	1	208	9	9	16	3	2184.217883	n/a	n/a	n/a	n/a
