onset	duration	run_number	trial_number	att_task	bar_direction	bar_period	bar_step	stim_noise_ori	stim_stair_val	response_val	probe_time	reaction_time
111780.7191	1.2035697	5	1	1	9	1	1	3	n/a	n/a	n/a	n/a
111781.9226	1.2003836	5	2	1	9	1	2	3	n/a	n/a	n/a	n/a
111783.123	1.2005102	5	3	1	9	1	3	3	n/a	n/a	n/a	n/a
111784.3235	1.2004055	5	4	1	9	1	4	3	n/a	n/a	n/a	n/a
111785.5239	1.2003782	5	5	1	9	1	5	3	n/a	n/a	n/a	n/a
111786.7243	1.2003568	5	6	1	9	1	6	3	n/a	n/a	n/a	n/a
111787.9247	1.2004475	5	7	1	9	1	7	3	n/a	n/a	n/a	n/a
111789.1251	1.2003636	5	8	1	9	1	8	3	n/a	n/a	n/a	n/a
111790.3255	1.2003919	5	9	1	9	1	9	3	n/a	n/a	n/a	n/a
111791.5259	1.2005163	5	10	1	9	1	10	3	n/a	n/a	n/a	n/a
111792.7264	1.2003151	5	11	1	9	1	11	3	n/a	n/a	n/a	n/a
111793.9267	1.2004586	5	12	1	9	1	12	3	n/a	n/a	n/a	n/a
111795.1272	1.2004123	5	13	1	9	1	13	3	n/a	n/a	n/a	n/a
111796.3276	1.2004154	5	14	1	9	1	14	3	n/a	n/a	n/a	n/a
111797.528	1.2004153	5	15	1	9	1	15	3	n/a	n/a	n/a	n/a
111798.7284	1.2003845	5	16	1	9	1	16	3	n/a	n/a	n/a	n/a
111799.9288	1.2004163	5	17	1	1	2	1	2	7	0	111800.3289	0.3492721
111801.1292	1.2003779	5	18	1	1	2	2	1	8	1	111801.5294	0.2374622
111802.3296	1.2003936	5	19	1	1	2	3	1	8	1	111802.7298	0.4191013
111803.53	1.2004473	5	20	1	1	2	4	2	8	1	111803.9302	0.5165939
111804.7304	1.2004024	5	21	1	1	2	5	2	7	1	111805.1306	0.5159708
111805.9308	1.2004729	5	22	1	1	2	6	2	7	1	111806.331	0.6177031
111807.1313	1.2004409	5	23	1	1	2	7	1	7	1	111807.5314	0.5159166
111808.3318	1.2003346	5	24	1	1	2	8	2	6	0	111808.7318	0.7195852
111809.5321	1.2005194	5	25	1	1	2	9	2	7	1	111809.9322	0.7165251
111810.7326	1.2002928	5	26	1	1	2	10	2	7	1	111811.1326	0.5183473
111811.9329	1.2004395	5	27	1	1	2	11	1	7	1	111812.333	0.5159889
111813.1333	1.2004445	5	28	1	1	2	12	2	6	0	111813.5335	0.4156413
111814.3338	1.2003588	5	29	1	1	2	13	2	7	1	111814.7338	0.5154012
111815.5341	1.20041	5	30	1	1	2	14	1	7	1	111815.9343	0.4169486
111816.7346	1.2003317	5	31	1	1	2	15	2	7	0	111817.1347	0.4161855
111817.9349	1.2005279	5	32	1	1	2	16	2	8	1	111818.3351	0.4155515
111819.1354	1.2003524	5	33	1	1	2	17	1	8	1	111819.5356	0.5148398
111820.3358	1.2003766	5	34	1	1	2	18	1	8	1	111820.736	0.4153754
111821.5361	1.2004392	5	35	1	1	2	19	1	7	1	111821.9364	0.5149281
111822.7366	1.2004723	5	36	1	1	2	20	2	7	1	111823.1367	0.4127965
111823.9371	1.2003773	5	37	1	1	2	21	1	7	1	111824.3371	0.6149645
111825.1374	1.2003536	5	38	1	1	2	22	2	6	1	111825.5375	0.7162153
111826.3378	1.2004558	5	39	1	1	2	23	1	6	1	111826.738	0.4155567
111827.5382	1.2004154	5	40	1	1	2	24	2	6	1	111827.9384	0.4153544
111828.7387	1.2004068	5	41	1	1	2	25	1	5	1	111829.1388	0.4148161
111829.9391	1.2004494	5	42	1	1	2	26	2	5	1	111830.3391	0.5148788
111831.1395	1.2003192	5	43	1	1	2	27	2	5	0	111831.5396	0.6153141
111832.3398	1.2004242	5	44	1	1	2	28	2	6	0	111832.74	0.6148777
111833.5403	1.2004445	5	45	1	1	2	29	2	7	1	111833.9404	0.6149036
111834.7407	1.20037	5	46	1	1	2	30	2	7	0	111835.1408	0.7149582
111835.9411	1.2004122	5	47	1	1	2	31	2	8	n/a	111836.3413	n/a
111837.1415	1.2004405	5	48	1	1	2	32	2	8	1	111837.5417	0.5127753
111838.3419	1.2003961	5	49	1	9	3	1	3	n/a	n/a	n/a	n/a
111839.5423	1.2004183	5	50	1	9	3	2	3	n/a	n/a	n/a	n/a
111840.7427	1.2003685	5	51	1	9	3	3	3	n/a	n/a	n/a	n/a
111841.9431	1.2005299	5	52	1	9	3	4	3	n/a	n/a	n/a	n/a
111843.1436	1.2002691	5	53	1	9	3	5	3	n/a	n/a	n/a	n/a
111844.3439	1.2004653	5	54	1	9	3	6	3	n/a	n/a	n/a	n/a
111845.5444	1.2004557	5	55	1	9	3	7	3	n/a	n/a	n/a	n/a
111846.7448	1.2003264	5	56	1	9	3	8	3	n/a	n/a	n/a	n/a
111847.9451	1.2005672	5	57	1	9	3	9	3	n/a	n/a	n/a	n/a
111849.1457	1.2002555	5	58	1	9	3	10	3	n/a	n/a	n/a	n/a
111850.346	1.200489	5	59	1	9	3	11	3	n/a	n/a	n/a	n/a
111851.5465	1.2003709	5	60	1	9	3	12	3	n/a	n/a	n/a	n/a
111852.7468	1.2004167	5	61	1	9	3	13	3	n/a	n/a	n/a	n/a
111853.9472	1.2003703	5	62	1	9	3	14	3	n/a	n/a	n/a	n/a
111855.1476	1.200403	5	63	1	9	3	15	3	n/a	n/a	n/a	n/a
111856.348	1.2004314	5	64	1	9	3	16	3	n/a	n/a	n/a	n/a
111857.5485	1.2004379	5	65	1	3	4	1	1	8	0	111857.9486	0.415502
111858.7489	1.2004192	5	66	1	3	4	2	1	9	1	111859.1491	0.6149606
111859.9493	1.2003982	5	67	1	3	4	3	1	9	1	111860.3495	0.6163603
111861.1497	1.2004015	5	68	1	3	4	4	2	9	1	111861.5498	0.4167631
111862.3501	1.200368	5	69	1	3	4	5	2	8	1	111862.7502	0.5158538
111863.5505	1.2004692	5	70	1	3	4	6	2	8	1	111863.9506	0.616288
111864.7509	1.2004346	5	71	1	3	4	7	2	8	0	111865.151	0.4166216
111865.9514	1.2003107	5	72	1	3	4	8	2	9	1	111866.3515	0.516671
111867.1517	1.2004272	5	73	1	3	4	9	2	9	1	111867.5519	0.5171489
111868.3521	1.2005329	5	74	1	3	4	10	1	9	1	111868.7523	0.4169005
111869.5527	1.2003425	5	75	1	3	4	11	2	8	1	111869.9527	0.616437
111870.753	1.2004327	5	76	1	3	4	12	2	8	1	111871.1531	0.6158167
111871.9534	1.200333	5	77	1	3	4	13	2	8	1	111872.3535	0.5160766
111873.1538	1.2004183	5	78	1	3	4	14	1	7	1	111873.5539	0.6161453
111874.3542	1.2003831	5	79	1	3	4	15	1	7	1	111874.7544	0.5161537
111875.5546	1.2004626	5	80	1	3	4	16	1	7	1	111875.9547	0.3529875
111876.755	1.2004526	5	81	1	3	4	17	1	6	1	111877.1552	0.4173606
111877.9555	1.200328	5	82	1	3	4	18	1	6	n/a	111878.3556	n/a
111879.1558	1.2004514	5	83	1	3	4	19	2	6	0	111879.5559	0.0180957
111880.3563	1.2004262	5	84	1	3	4	20	2	7	0	111880.7564	-0.08400300001
111881.5567	1.200348	5	85	1	3	4	21	2	8	1	111881.9568	0.5155669
111882.757	1.2004298	5	86	1	3	4	22	1	8	1	111883.1572	0.616139
111883.9575	1.2004312	5	87	1	3	4	23	2	8	1	111884.3577	0.516046
111885.1579	1.2004451	5	88	1	3	4	24	2	7	1	111885.558	0.6170003
111886.3583	1.2003994	5	89	1	3	4	25	1	7	1	111886.7585	0.5159595
111887.5587	1.2003826	5	90	1	3	4	26	1	7	1	111887.9588	0.5162522
111888.7591	1.2003942	5	91	1	3	4	27	2	6	0	111889.1593	0.5164559
111889.9595	1.2003987	5	92	1	3	4	28	1	7	1	111890.3597	0.5165037
111891.1599	1.2004519	5	93	1	3	4	29	2	7	1	111891.5601	0.4175727
111892.3604	1.2169969	5	94	1	3	4	30	1	7	1	111892.7771	0.5165662
111893.5774	1.2004402	5	95	1	3	4	31	1	6	1	111893.9775	0.4401387
111894.7778	1.2004711	5	96	1	3	4	32	1	6	1	111895.1779	0.4204317
111895.9783	1.2003828	5	97	1	9	5	1	3	n/a	n/a	n/a	n/a
111897.1787	1.2004174	5	98	1	9	5	2	3	n/a	n/a	n/a	n/a
111898.3791	1.2004086	5	99	1	9	5	3	3	n/a	n/a	n/a	n/a
111899.5795	1.2004049	5	100	1	9	5	4	3	n/a	n/a	n/a	n/a
111900.7799	1.200457	5	101	1	9	5	5	3	n/a	n/a	n/a	n/a
111901.9803	1.2003589	5	102	1	9	5	6	3	n/a	n/a	n/a	n/a
111903.1807	1.2004153	5	103	1	9	5	7	3	n/a	n/a	n/a	n/a
111904.3811	1.2004317	5	104	1	9	5	8	3	n/a	n/a	n/a	n/a
111905.5815	1.2003533	5	105	1	9	5	9	3	n/a	n/a	n/a	n/a
111906.7819	1.2004553	5	106	1	9	5	10	3	n/a	n/a	n/a	n/a
111907.9824	1.2003979	5	107	1	9	5	11	3	n/a	n/a	n/a	n/a
111909.1828	1.200416	5	108	1	9	5	12	3	n/a	n/a	n/a	n/a
111910.3832	1.2004115	5	109	1	9	5	13	3	n/a	n/a	n/a	n/a
111911.5836	1.200382	5	110	1	9	5	14	3	n/a	n/a	n/a	n/a
111912.784	1.2004078	5	111	1	9	5	15	3	n/a	n/a	n/a	n/a
111913.9844	1.2004988	5	112	1	9	5	16	3	n/a	n/a	n/a	n/a
111915.1849	1.2002685	5	113	1	5	6	1	2	6	1	111915.5849	0.2127899
111916.3851	1.2006036	5	114	1	5	6	2	1	5	1	111916.7854	0.6142616
111917.5857	1.2002627	5	115	1	5	6	3	1	5	1	111917.9858	0.6153764
111918.786	1.200484	5	116	1	5	6	4	2	5	0	111919.1862	0.5146951
111919.9865	1.2003222	5	117	1	5	6	5	2	6	0	111920.3867	0.514767
111921.1868	1.2005697	5	118	1	5	6	6	2	7	1	111921.587	0.5147496
111922.3874	1.2002557	5	119	1	5	6	7	2	7	0	111922.7874	0.4146639
111923.5876	1.2004128	5	120	1	5	6	8	2	8	1	111923.9878	0.5147936
111924.7881	1.2004499	5	121	1	5	6	9	2	8	1	111925.1883	0.4147987
111925.9885	1.2004022	5	122	1	5	6	10	2	8	1	111926.3887	0.5153847
111927.1889	1.2004232	5	123	1	5	6	11	1	7	1	111927.5891	0.5145914
111928.3893	1.2004038	5	124	1	5	6	12	2	7	1	111928.7894	0.71555
111929.5897	1.2004137	5	125	1	5	6	13	2	7	1	111929.9899	0.7155512
111930.7901	1.2004476	5	126	1	5	6	14	1	6	1	111931.1903	0.4509182
111931.9906	1.2003169	5	127	1	5	6	15	1	6	1	111932.3907	0.4376683
111933.1909	1.200502	5	128	1	5	6	16	1	6	1	111933.5911	0.4151916
111934.3914	1.2003777	5	129	1	5	6	17	1	5	0	111934.7915	0.3403581
111935.5918	1.2003701	5	130	1	5	6	18	1	6	1	111935.9918	0.4155857
111936.7922	1.2004531	5	131	1	5	6	19	2	6	1	111937.1923	0.5149055
111937.9926	1.2004025	5	132	1	5	6	20	2	6	1	111938.3927	0.6147456
111939.193	1.2004273	5	133	1	5	6	21	1	5	1	111939.5931	0.4407064
111940.3934	1.2003368	5	134	1	5	6	22	2	5	1	111940.7935	0.7162582
111941.5938	1.2004593	5	135	1	5	6	23	2	5	0	111941.9939	0.6147743
111942.7942	1.2003524	5	136	1	5	6	24	1	6	n/a	111943.1944	n/a
111943.9946	1.2004595	5	137	1	5	6	25	1	6	0	111944.3948	0.2150171
111945.195	1.2004491	5	138	1	5	6	26	2	7	0	111945.5951	0.2442413
111946.3955	1.2003316	5	139	1	5	6	27	2	8	0	111946.7956	0.3157434
111947.5958	1.2003726	5	140	1	5	6	28	2	9	0	111947.996	0.4157179
111948.7962	1.2005303	5	141	1	5	6	29	2	10	1	111949.1965	0.4453501
111949.9967	1.2003622	5	142	1	5	6	30	1	10	1	111950.3968	0.515815
111951.1971	1.2004501	5	143	1	5	6	31	1	10	1	111951.5972	0.6141628
111952.3975	1.2003784	5	144	1	5	6	32	1	9	1	111952.7976	0.6130787
111953.5979	1.2005305	5	145	1	9	7	1	3	n/a	n/a	n/a	n/a
111954.7985	1.2002369	5	146	1	9	7	2	3	n/a	n/a	n/a	n/a
111955.9987	1.2004546	5	147	1	9	7	3	3	n/a	n/a	n/a	n/a
111957.1991	1.2003526	5	148	1	9	7	4	3	n/a	n/a	n/a	n/a
111958.3995	1.2004613	5	149	1	9	7	5	3	n/a	n/a	n/a	n/a
111959.6	1.2003542	5	150	1	9	7	6	3	n/a	n/a	n/a	n/a
111960.8003	1.2004732	5	151	1	9	7	7	3	n/a	n/a	n/a	n/a
111962.0008	1.2003693	5	152	1	9	7	8	3	n/a	n/a	n/a	n/a
111963.2012	1.200423	5	153	1	9	7	9	3	n/a	n/a	n/a	n/a
111964.4016	1.200431	5	154	1	9	7	10	3	n/a	n/a	n/a	n/a
111965.602	1.20048	5	155	1	9	7	11	3	n/a	n/a	n/a	n/a
111966.8025	1.200299	5	156	1	9	7	12	3	n/a	n/a	n/a	n/a
111968.0028	1.20044	5	157	1	9	7	13	3	n/a	n/a	n/a	n/a
111969.2032	1.2004238	5	158	1	9	7	14	3	n/a	n/a	n/a	n/a
111970.4037	1.2003572	5	159	1	9	7	15	3	n/a	n/a	n/a	n/a
111971.604	1.2004317	5	160	1	9	7	16	3	n/a	n/a	n/a	n/a
111972.8044	1.2004322	5	161	1	7	8	1	2	9	n/a	111973.2046	n/a
111974.0049	1.2004156	5	162	1	7	8	2	2	9	1	111974.405	0.2442861
111975.2053	1.2003617	5	163	1	7	8	3	1	9	1	111975.6054	0.2167244
111976.4057	1.2004556	5	164	1	7	8	4	2	8	1	111976.8058	0.4177725
111977.6061	1.2004142	5	165	1	7	8	5	2	8	1	111978.0062	0.6166685
111978.8065	1.200402	5	166	1	7	8	6	1	8	1	111979.2067	0.7157307
111980.0069	1.2003744	5	167	1	7	8	7	1	7	1	111980.4071	0.6165269
111981.2073	1.2004124	5	168	1	7	8	8	2	7	1	111981.6075	0.5161994
111982.4077	1.2004114	5	169	1	7	8	9	1	7	1	111982.8079	0.2163955
111983.6081	1.2004308	5	170	1	7	8	10	1	6	0	111984.0083	0.01795540001
111984.8086	1.2004998	5	171	1	7	8	11	1	7	0	111985.2087	0.0425828
111986.0091	1.2003815	5	172	1	7	8	12	2	8	1	111986.4091	0.1171712
111987.2094	1.2003562	5	173	1	7	8	13	1	8	1	111987.6095	0.2158088
111988.4098	1.2004125	5	174	1	7	8	14	2	8	1	111988.8099	0.3422168
111989.6102	1.2004546	5	175	1	7	8	15	2	7	1	111990.0104	0.4513208
111990.8107	1.2004556	5	176	1	7	8	16	1	7	n/a	111991.2107	n/a
111992.0111	1.2003141	5	177	1	7	8	17	2	7	1	111992.4112	0.4171707
111993.2114	1.2004202	5	178	1	7	8	18	2	7	1	111993.6115	0.5157223
111994.4118	1.2004095	5	179	1	7	8	19	1	6	1	111994.8119	0.5162399
111995.6123	1.200378	5	180	1	7	8	20	2	6	1	111996.0124	0.5170031
111996.8126	1.2004396	5	181	1	7	8	21	1	6	0	111997.2128	0.4172215
111998.0131	1.2003711	5	182	1	7	8	22	1	7	0	111998.4132	0.4169827
111999.2134	1.2004458	5	183	1	7	8	23	2	8	1	111999.6136	0.4172089
112000.4139	1.2003776	5	184	1	7	8	24	2	8	1	112000.814	0.3440256
112001.6143	1.2004521	5	185	1	7	8	25	2	8	1	112002.0145	0.3152716
112002.8147	1.2002811	5	186	1	7	8	26	2	7	0	112003.2149	0.3153258
112004.015	1.2005546	5	187	1	7	8	27	2	8	1	112004.4152	0.5136717
112005.2156	1.2003602	5	188	1	7	8	28	2	8	1	112005.6156	0.516333
112006.4159	1.2005217	5	189	1	7	8	29	1	8	1	112006.8161	0.5166504
112007.6164	1.2003389	5	190	1	7	8	30	2	7	1	112008.0165	0.6159
112008.8168	1.2003876	5	191	1	7	8	31	2	7	n/a	112009.2168	n/a
112010.0172	1.2003804	5	192	1	7	8	32	1	7	1	112010.4173	0.6144153
112011.2175	1.2004069	5	193	1	9	9	1	3	n/a	n/a	n/a	n/a
112012.418	1.200468	5	194	1	9	9	2	3	n/a	n/a	n/a	n/a
112013.6184	1.2003666	5	195	1	9	9	3	3	n/a	n/a	n/a	n/a
112014.8188	1.2004394	5	196	1	9	9	4	3	n/a	n/a	n/a	n/a
112016.0192	1.2003607	5	197	1	9	9	5	3	n/a	n/a	n/a	n/a
112017.2196	1.2004915	5	198	1	9	9	6	3	n/a	n/a	n/a	n/a
112018.4201	1.2003973	5	199	1	9	9	7	3	n/a	n/a	n/a	n/a
112019.6205	1.2003642	5	200	1	9	9	8	3	n/a	n/a	n/a	n/a
112020.8208	1.2003996	5	201	1	9	9	9	3	n/a	n/a	n/a	n/a
112022.0212	1.2005303	5	202	1	9	9	10	3	n/a	n/a	n/a	n/a
112023.2218	1.2002677	5	203	1	9	9	11	3	n/a	n/a	n/a	n/a
112024.422	1.2005025	5	204	1	9	9	12	3	n/a	n/a	n/a	n/a
112025.6225	1.200316	5	205	1	9	9	13	3	n/a	n/a	n/a	n/a
112026.8229	1.2004379	5	206	1	9	9	14	3	n/a	n/a	n/a	n/a
112028.0233	1.2004818	5	207	1	9	9	15	3	n/a	n/a	n/a	n/a
112029.2238	1.2004009	5	208	1	9	9	16	3	n/a	n/a	n/a	n/a
