onset	duration	run_number	trial_number	att_task	bar_direction	bar_period	bar_step	stim_noise_ori	stim_stair_val	response_val	probe_time	reaction_time
1880.413323	1.1990886	2	1	1	9	1	1	3	n/a	n/a	n/a	n/a
1881.612412	1.1997201	2	2	1	9	1	2	3	n/a	n/a	n/a	n/a
1882.812132	1.1998127	2	3	1	9	1	3	3	n/a	n/a	n/a	n/a
1884.011944	1.1998804	2	4	1	9	1	4	3	n/a	n/a	n/a	n/a
1885.211825	1.1998678	2	5	1	9	1	5	3	n/a	n/a	n/a	n/a
1886.411693	1.1997209	2	6	1	9	1	6	3	n/a	n/a	n/a	n/a
1887.611414	1.1998753	2	7	1	9	1	7	3	n/a	n/a	n/a	n/a
1888.811289	1.1998128	2	8	1	9	1	8	3	n/a	n/a	n/a	n/a
1890.011102	1.1998245	2	9	1	9	1	9	3	n/a	n/a	n/a	n/a
1891.210926	1.1998276	2	10	1	9	1	10	3	n/a	n/a	n/a	n/a
1892.410754	1.1998742	2	11	1	9	1	11	3	n/a	n/a	n/a	n/a
1893.610628	1.1998923	2	12	1	9	1	12	3	n/a	n/a	n/a	n/a
1894.81052	1.199823778	2	13	1	9	1	13	3	n/a	n/a	n/a	n/a
1896.010344	1.199762222	2	14	1	9	1	14	3	n/a	n/a	n/a	n/a
1897.210106	1.1997888	2	15	1	9	1	15	3	n/a	n/a	n/a	n/a
1898.409895	1.1998542	2	16	1	9	1	16	3	n/a	n/a	n/a	n/a
1899.609749	1.1998632	2	17	1	1	2	1	2	8	1	1900.009666	0.6096811
1900.809612	1.1997625	2	18	1	1	2	2	2	8	1	1901.209409	0.7099515
1902.009375	1.1998453	2	19	1	1	2	3	2	7	n/a	1902.409313	n/a
1903.20922	1.1997863	2	20	1	1	2	4	1	7	1	1903.609098	0.6061376
1904.409007	1.1997637	2	21	1	1	2	5	2	7	1	1904.808952	0.7118274
1905.60877	1.1997707	2	22	1	1	2	6	1	7	1	1906.008689	0.5065186
1906.808541	1.19994	2	23	1	1	2	7	1	6	0	1907.20853	0.5117694
1908.008481	1.1998499	2	24	1	1	2	8	1	7	1	1908.408422	0.6052643
1909.208331	1.1997454	2	25	1	1	2	9	1	7	1	1909.608248	0.6072084
1910.408076	1.199864	2	26	1	1	2	10	2	7	1	1910.808035	0.6140884
1911.60794	1.1997216	2	27	1	1	2	11	1	6	n/a	1912.007909	n/a
1912.807662	1.2000508	2	28	1	1	2	12	1	6	n/a	1913.207633	n/a
1914.007713	1.1996138	2	29	1	1	2	13	2	6	n/a	1914.407562	n/a
1915.207326	1.1999533	2	30	1	1	2	14	1	6	1	1915.607316	0.5137703
1916.40728	1.1997801	2	31	1	1	2	15	2	6	1	1916.807074	0.3096344
1917.60706	1.199806	2	32	1	1	2	16	1	6	1	1918.007001	0.4102042
1918.806866	1.1998726	2	33	1	1	2	17	2	5	1	1919.206767	0.6095747
1920.006738	1.1996957	2	34	1	1	2	18	2	5	n/a	1920.406691	n/a
1921.206434	1.1998018	2	35	1	1	2	19	2	5	n/a	1921.606472	n/a
1922.406236	1.200061491	2	36	1	1	2	20	1	5	0	1922.806266	0.1310636
1923.606297	1.199704409	2	37	1	1	2	21	1	6	1	1924.006175	-0.0615465
1924.806002	1.1998322	2	38	1	1	2	22	2	6	n/a	1925.205925	n/a
1926.005834	1.1997231	2	39	1	1	2	23	2	6	0	1926.405816	0.7101694
1927.205557	1.1999873	2	40	1	1	2	24	2	7	0	1927.605599	0.7096893
1928.405544	1.1998059	2	41	1	1	2	25	2	8	0	1928.80542	0.7094486
1929.60535	1.1998197	2	42	1	1	2	26	1	9	1	1930.005265	0.6094603
1930.80517	1.1997832	2	43	1	1	2	27	2	9	1	1931.204985	0.6103801
1932.004953	1.1997895	2	44	1	1	2	28	1	9	n/a	1932.404875	n/a
1933.204743	1.1998115	2	45	1	1	2	29	1	9	1	1933.604758	0.2096992
1934.404554	1.1998915	2	46	1	1	2	30	2	8	1	1934.804572	0.6094385
1935.604446	1.1997896	2	47	1	1	2	31	2	8	n/a	1936.00432	n/a
1936.804235	1.1998376	2	48	1	1	2	32	2	8	0	1937.204215	0.0214653
1938.004073	1.1998268	2	49	1	9	3	1	3	n/a	n/a	n/a	n/a
1939.2039	1.1998617	2	50	1	9	3	2	3	n/a	n/a	n/a	n/a
1940.403761	1.1997804	2	51	1	9	3	3	3	n/a	n/a	n/a	n/a
1941.603542	1.199896	2	52	1	9	3	4	3	n/a	n/a	n/a	n/a
1942.803438	1.1998666	2	53	1	9	3	5	3	n/a	n/a	n/a	n/a
1944.003304	1.1997836	2	54	1	9	3	6	3	n/a	n/a	n/a	n/a
1945.203088	1.1997936	2	55	1	9	3	7	3	n/a	n/a	n/a	n/a
1946.402882	1.199796	2	56	1	9	3	8	3	n/a	n/a	n/a	n/a
1947.602678	1.1998182	2	57	1	9	3	9	3	n/a	n/a	n/a	n/a
1948.802496	1.1997977	2	58	1	9	3	10	3	n/a	n/a	n/a	n/a
1950.002293	1.1997235	2	59	1	9	3	11	3	n/a	n/a	n/a	n/a
1951.202017	1.1999421	2	60	1	9	3	12	3	n/a	n/a	n/a	n/a
1952.401959	1.1998165	2	61	1	9	3	13	3	n/a	n/a	n/a	n/a
1953.601776	1.1998423	2	62	1	9	3	14	3	n/a	n/a	n/a	n/a
1954.801618	1.199778	2	63	1	9	3	15	3	n/a	n/a	n/a	n/a
1956.001396	1.1998795	2	64	1	9	3	16	3	n/a	n/a	n/a	n/a
1957.201275	1.199916678	2	65	1	3	4	1	2	9	1	1957.601263	0.7173776
1958.401192	1.199811422	2	66	1	3	4	2	1	9	1	1958.800974	0.523534
1959.601003	1.1997179	2	67	1	3	4	3	2	9	1	1960.000706	0.7178588
1960.800721	1.1997079	2	68	1	3	4	4	2	8	n/a	1961.20063	n/a
1962.000429	1.1998223	2	69	1	3	4	5	2	8	1	1962.400495	0.6152076
1963.200252	1.1998272	2	70	1	3	4	6	1	8	n/a	1963.600284	n/a
1964.400079	1.1999307	2	71	1	3	4	7	2	8	1	1964.800167	0.6089893
1965.600009	1.199944791	2	72	1	3	4	8	2	8	1	1965.999914	0.6089338
1966.799954	1.199740609	2	73	1	3	4	9	1	7	0	1967.199775	0.6194359
1967.999695	1.1998131	2	74	1	3	4	10	2	8	1	1968.39964	0.7184164
1969.199508	1.1997794	2	75	1	3	4	11	2	8	1	1969.599296	0.7182623
1970.399287	1.1998916	2	76	1	3	4	12	1	8	n/a	1970.799231	n/a
1971.599179	1.199875313	2	77	1	3	4	13	1	8	n/a	1971.999124	n/a
1972.799054	1.199712187	2	78	1	3	4	14	1	8	1	1973.198948	0.6188563
1973.998767	1.1998415	2	79	1	3	4	15	1	7	1	1974.398652	0.5238965
1975.198608	1.1997908	2	80	1	3	4	16	1	7	n/a	1975.598413	n/a
1976.398399	1.1999061	2	81	1	3	4	17	1	7	1	1976.798378	0.5252075
1977.598305	1.1997053	2	82	1	3	4	18	1	7	1	1977.998216	0.7180898
1978.79801	1.1999356	2	83	1	3	4	19	2	6	1	1979.197978	0.6173647
1979.997946	1.1996925	2	84	1	3	4	20	1	6	1	1980.397763	0.7164823
1981.197638	1.1999301	2	85	1	3	4	21	2	6	n/a	1981.597669	n/a
1982.397568	1.1998654	2	86	1	3	4	22	2	6	n/a	1982.79744	n/a
1983.597434	1.1996707	2	87	1	3	4	23	2	6	n/a	1983.99732	n/a
1984.797104	1.2000353	2	88	1	3	4	24	1	6	1	1985.197103	0.5271797
1985.99714	1.1997393	2	89	1	3	4	25	1	5	1	1986.396862	0.5273982
1987.196879	1.1998338	2	90	1	3	4	26	1	5	n/a	1987.596794	n/a
1988.396713	1.1997673	2	91	1	3	4	27	2	5	1	1988.7965	0.6170098
1989.59648	1.1998412	2	92	1	3	4	28	2	5	0	1989.996445	0.4412088
1990.796321	1.1998275	2	93	1	3	4	29	1	6	0	1991.196264	0.4392427
1991.996149	1.1997361	2	94	1	3	4	30	1	7	1	1992.396071	0.7136433
1993.195885	1.1998837	2	95	1	3	4	31	2	7	1	1993.596029	0.7106637
1994.395769	1.1998892	2	96	1	3	4	32	1	7	n/a	1994.795581	n/a
1995.595658	1.1998012	2	97	1	9	5	1	3	n/a	n/a	n/a	n/a
1996.795459	1.1998597	2	98	1	9	5	2	3	n/a	n/a	n/a	n/a
1997.995319	1.1997895	2	99	1	9	5	3	3	n/a	n/a	n/a	n/a
1999.195108	1.1998497	2	100	1	9	5	4	3	n/a	n/a	n/a	n/a
2000.394958	1.1998249	2	101	1	9	5	5	3	n/a	n/a	n/a	n/a
2001.594783	1.1998222	2	102	1	9	5	6	3	n/a	n/a	n/a	n/a
2002.794605	1.1998136	2	103	1	9	5	7	3	n/a	n/a	n/a	n/a
2003.994419	1.1998051	2	104	1	9	5	8	3	n/a	n/a	n/a	n/a
2005.194224	1.1998208	2	105	1	9	5	9	3	n/a	n/a	n/a	n/a
2006.394045	1.1996979	2	106	1	9	5	10	3	n/a	n/a	n/a	n/a
2007.593742	1.1998731	2	107	1	9	5	11	3	n/a	n/a	n/a	n/a
2008.793616	1.1998508	2	108	1	9	5	12	3	n/a	n/a	n/a	n/a
2009.993466	1.1998571	2	109	1	9	5	13	3	n/a	n/a	n/a	n/a
2011.193323	1.1997995	2	110	1	9	5	14	3	n/a	n/a	n/a	n/a
2012.393123	1.1998801	2	111	1	9	5	15	3	n/a	n/a	n/a	n/a
2013.593003	1.1996777	2	112	1	9	5	16	3	n/a	n/a	n/a	n/a
2014.792681	1.199968	2	113	1	5	6	1	1	7	1	2015.192731	0.5107277
2015.992649	1.1998125	2	114	1	5	6	2	2	6	0	2016.392578	0.6158607
2017.192461	1.1997867	2	115	1	5	6	3	1	7	1	2017.592292	0.5201953
2018.392248	1.199849	2	116	1	5	6	4	2	7	1	2018.792179	0.6165252
2019.592097	1.1998276	2	117	1	5	6	5	2	7	1	2019.991875	0.6163485
2020.791925	1.1997076	2	118	1	5	6	6	2	6	n/a	2021.191795	n/a
2021.991632	1.1998379	2	119	1	5	6	7	1	6	n/a	2022.391684	n/a
2023.19147	1.200037335	2	120	1	5	6	8	1	6	1	2023.59154	0.4114698
2024.391507	1.199767265	2	121	1	5	6	9	2	6	n/a	2024.791448	n/a
2025.591275	1.1997631	2	122	1	5	6	10	1	6	1	2025.991155	0.2222415
2026.791038	1.19985	2	123	1	5	6	11	2	6	1	2027.190908	0.5229774
2027.990888	1.1998206	2	124	1	5	6	12	2	5	0	2028.390853	0.6172695
2029.190708	1.199921825	2	125	1	5	6	13	2	6	n/a	2029.590644	n/a
2030.39063	1.199791675	2	126	1	5	6	14	1	6	n/a	2030.790407	n/a
2031.590422	1.199756	2	127	1	5	6	15	1	6	n/a	2031.990283	n/a
2032.790178	1.1998625	2	128	1	5	6	16	1	6	n/a	2033.190126	n/a
2033.99004	1.1997364	2	129	1	5	6	17	1	6	1	2034.389956	0.0191394
2035.189777	1.1997853	2	130	1	5	6	18	1	6	1	2035.589718	0.5236196
2036.389562	1.1999223	2	131	1	5	6	19	2	6	n/a	2036.789508	n/a
2037.589484	1.199938756	2	132	1	5	6	20	2	6	1	2037.989363	-0.0762585
2038.789423	1.199710344	2	133	1	5	6	21	1	5	n/a	2039.189265	n/a
2039.989133	1.1998304	2	134	1	5	6	22	1	5	1	2040.389027	0.4074886
2041.188964	1.1998328	2	135	1	5	6	23	1	5	n/a	2041.588881	n/a
2042.388797	1.1997429	2	136	1	5	6	24	2	5	n/a	2042.788736	n/a
2043.58854	1.1998401	2	137	1	5	6	25	1	5	n/a	2043.988549	n/a
2044.78838	1.1998557	2	138	1	5	6	26	1	5	0	2045.188225	0.4390026
2045.988235	1.1997444	2	139	1	5	6	27	1	6	1	2046.388165	0.6189591
2047.18798	1.1999463	2	140	1	5	6	28	2	6	0	2047.588008	0.7152878
2048.387926	1.1997659	2	141	1	5	6	29	1	7	1	2048.787838	0.7151795
2049.587692	1.199885	2	142	1	5	6	30	1	7	1	2049.987551	0.6175628
2050.787577	1.1997926	2	143	1	5	6	31	2	7	1	2051.187356	0.6171436
2051.98737	1.1998485	2	144	1	5	6	32	2	6	0	2052.387281	0.7146502
2053.187218	1.1997616	2	145	1	9	7	1	3	n/a	n/a	n/a	n/a
2054.38698	1.1998392	2	146	1	9	7	2	3	n/a	n/a	n/a	n/a
2055.586819	1.1997253	2	147	1	9	7	3	3	n/a	n/a	n/a	n/a
2056.786544	1.2000093	2	148	1	9	7	4	3	n/a	n/a	n/a	n/a
2057.986553	1.1997789	2	149	1	9	7	5	3	n/a	n/a	n/a	n/a
2059.186332	1.1998333	2	150	1	9	7	6	3	n/a	n/a	n/a	n/a
2060.386166	1.1997785	2	151	1	9	7	7	3	n/a	n/a	n/a	n/a
2061.585944	1.1998366	2	152	1	9	7	8	3	n/a	n/a	n/a	n/a
2062.785781	1.1998566	2	153	1	9	7	9	3	n/a	n/a	n/a	n/a
2063.985637	1.1997495	2	154	1	9	7	10	3	n/a	n/a	n/a	n/a
2065.185387	1.1998635	2	155	1	9	7	11	3	n/a	n/a	n/a	n/a
2066.38525	1.199806	2	156	1	9	7	12	3	n/a	n/a	n/a	n/a
2067.585056	1.1998223	2	157	1	9	7	13	3	n/a	n/a	n/a	n/a
2068.784879	1.1998395	2	158	1	9	7	14	3	n/a	n/a	n/a	n/a
2069.984718	1.1998712	2	159	1	9	7	15	3	n/a	n/a	n/a	n/a
2071.184589	1.199726	2	160	1	9	7	16	3	n/a	n/a	n/a	n/a
2072.384315	1.1999204	2	161	1	7	8	1	2	7	1	2072.784353	0.6109183
2073.584236	1.1996843	2	162	1	7	8	2	2	7	1	2073.984006	0.6179871
2074.78392	1.1999416	2	163	1	7	8	3	1	7	1	2075.18399	0.7172407
2075.983862	1.1998469	2	164	1	7	8	4	1	6	n/a	2076.383743	n/a
2077.183709	1.1996535	2	165	1	7	8	5	2	6	0	2077.583635	0.617354
2078.383362	1.1999643	2	166	1	7	8	6	2	7	n/a	2078.783558	n/a
2079.583326	1.1997376	2	167	1	7	8	7	2	7	0	2079.98322	0.3366867
2080.783064	1.1999001	2	168	1	7	8	8	2	8	0	2081.183097	0.4109399
2081.982964	1.1998503	2	169	1	7	8	9	1	9	1	2082.382957	0.4298713
2083.182814	1.1998105	2	170	1	7	8	10	2	9	1	2083.582736	0.4178781
2084.382625	1.1998246	2	171	1	7	8	11	2	9	1	2084.782566	0.6178867
2085.58245	1.1998221	2	172	1	7	8	12	2	8	1	2085.982379	0.6184833
2086.782272	1.1998626	2	173	1	7	8	13	1	8	1	2087.182227	0.6119031
2087.982134	1.1998036	2	174	1	7	8	14	2	8	1	2088.381894	0.524434
2089.181938	1.1997986	2	175	1	7	8	15	2	7	1	2089.581791	0.5242988
2090.381736	1.199938269	2	176	1	7	8	16	2	7	n/a	2090.781647	n/a
2091.581675	1.199603331	2	177	1	7	8	17	2	7	n/a	2091.981568	n/a
2092.781278	1.1999689	2	178	1	7	8	18	2	7	1	2093.181278	0.6186656
2093.981247	1.1997647	2	179	1	7	8	19	2	7	1	2094.381267	0.607543831
2095.181012	1.1998875	2	180	1	7	8	20	2	6	1	2095.581016	0.718648
2096.380899	1.1998055	2	181	1	7	8	21	2	6	n/a	2096.780827	n/a
2097.580705	1.1998562	2	182	1	7	8	22	1	6	1	2097.980635	0.7115411
2098.780561	1.1997973	2	183	1	7	8	23	2	6	n/a	2099.180531	n/a
2099.980358	1.1998467	2	184	1	7	8	24	2	6	1	2100.380318	0.6187061
2101.180205	1.1997582	2	185	1	7	8	25	1	5	1	2101.57997	0.6129427
2102.379963	1.1997805	2	186	1	7	8	26	1	5	0	2102.779834	0.5244602
2103.579743	1.1998918	2	187	1	7	8	27	1	6	1	2103.979747	0.5258525
2104.779635	1.1997017	2	188	1	7	8	28	1	6	0	2105.17967	0.6186716
2105.979337	1.1999757	2	189	1	7	8	29	2	7	1	2106.379395	0.6211779
2107.179313	1.1998368	2	190	1	7	8	30	1	7	n/a	2107.57911	n/a
2108.37915	1.1997904	2	191	1	7	8	31	2	7	n/a	2108.779044	n/a
2109.57894	1.1999009	2	192	1	7	8	32	2	7	0	2109.978894	-0.0507891
2110.778841	1.1997322	2	193	1	9	9	1	3	n/a	n/a	n/a	n/a
2111.978573	1.1998177	2	194	1	9	9	2	3	n/a	n/a	n/a	n/a
2113.178391	1.1997633	2	195	1	9	9	3	3	n/a	n/a	n/a	n/a
2114.378154	1.1998369	2	196	1	9	9	4	3	n/a	n/a	n/a	n/a
2115.577991	1.1998763	2	197	1	9	9	5	3	n/a	n/a	n/a	n/a
2116.777867	1.1998505	2	198	1	9	9	6	3	n/a	n/a	n/a	n/a
2117.977718	1.1997154	2	199	1	9	9	7	3	n/a	n/a	n/a	n/a
2119.177433	1.199785	2	200	1	9	9	8	3	n/a	n/a	n/a	n/a
2120.377218	1.1999824	2	201	1	9	9	9	3	n/a	n/a	n/a	n/a
2121.5772	1.1998048	2	202	1	9	9	10	3	n/a	n/a	n/a	n/a
2122.777005	1.1997837	2	203	1	9	9	11	3	n/a	n/a	n/a	n/a
2123.976789	1.1999624	2	204	1	9	9	12	3	n/a	n/a	n/a	n/a
2125.176751	1.199733	2	205	1	9	9	13	3	n/a	n/a	n/a	n/a
2126.376484	1.199818	2	206	1	9	9	14	3	n/a	n/a	n/a	n/a
2127.576302	1.1996862	2	207	1	9	9	15	3	n/a	n/a	n/a	n/a
2128.775989	1.1999349	2	208	1	9	9	16	3	n/a	n/a	n/a	n/a
