onset	duration	run_number	trial_number	att_task	bar_direction	bar_period	bar_step	stim_noise_ori	stim_stair_val	response_val	probe_time	reaction_time
4149.18579	1.2012905	4	1	1	9	1	1	3	n/a	n/a	n/a	n/a
4150.38708	1.2004026	4	2	1	9	1	2	3	n/a	n/a	n/a	n/a
4151.587483	1.2003781	4	3	1	9	1	3	3	n/a	n/a	n/a	n/a
4152.787861	1.2004057	4	4	1	9	1	4	3	n/a	n/a	n/a	n/a
4153.988267	1.2004414	4	5	1	9	1	5	3	n/a	n/a	n/a	n/a
4155.188708	1.2004245	4	6	1	9	1	6	3	n/a	n/a	n/a	n/a
4156.389133	1.2004066	4	7	1	9	1	7	3	n/a	n/a	n/a	n/a
4157.589539	1.2004426	4	8	1	9	1	8	3	n/a	n/a	n/a	n/a
4158.789982	1.2003674	4	9	1	9	1	9	3	n/a	n/a	n/a	n/a
4159.990349	1.2003667	4	10	1	9	1	10	3	n/a	n/a	n/a	n/a
4161.190716	1.2004339	4	11	1	9	1	11	3	n/a	n/a	n/a	n/a
4162.39115	1.2004448	4	12	1	9	1	12	3	n/a	n/a	n/a	n/a
4163.591595	1.2004076	4	13	1	9	1	13	3	n/a	n/a	n/a	n/a
4164.792002	1.2003849	4	14	1	9	1	14	3	n/a	n/a	n/a	n/a
4165.992387	1.2005025	4	15	1	9	1	15	3	n/a	n/a	n/a	n/a
4167.19289	1.2003128	4	16	1	9	1	16	3	n/a	n/a	n/a	n/a
4168.393202	1.2003275	4	17	1	1	2	1	1	4	n/a	4168.793371	n/a
4169.59353	1.2089094	4	18	1	1	2	2	2	4	1	4170.002097	0.6161262
4170.802439	1.2003762	4	19	1	1	2	3	2	4	1	4171.202435	0.7163082
4172.002815	1.2003958	4	20	1	1	2	4	2	3	1	4172.402902	0.7161489
4173.203211	1.2003777	4	21	1	1	2	5	1	3	n/a	4173.603366	n/a
4174.403589	1.2004122	4	22	1	1	2	6	2	3	1	4174.803699	0.6171028
4175.604001	1.2004371	4	23	1	1	2	7	2	3	0	4176.00426	0.719358
4176.804438	1.2003858	4	24	1	1	2	8	1	4	n/a	4177.204556	n/a
4178.004824	1.2004576	4	25	1	1	2	9	2	4	1	4178.40511	0.6185978
4179.205282	1.2003057	4	26	1	1	2	10	2	4	1	4179.605401	0.6153583
4180.405587	1.2004844	4	27	1	1	2	11	2	4	1	4180.805898	0.6148558
4181.606072	1.2003893	4	28	1	1	2	12	1	3	1	4182.006157	0.6158914
4182.806461	1.2004144	4	29	1	1	2	13	2	3	n/a	4183.206569	n/a
4184.006876	1.2004381	4	30	1	1	2	14	2	3	1	4184.40703	0.7161039
4185.207314	1.2003071	4	31	1	1	2	15	1	3	1	4185.607539	0.618085
4186.407621	1.200489	4	32	1	1	2	16	2	2	1	4186.807827	0.6146703
4187.60811	1.2005002	4	33	1	1	2	17	1	2	1	4188.008242	0.7168458
4188.80861	1.2002564	4	34	1	1	2	18	1	2	n/a	4189.20866	n/a
4190.008866	1.2004921	4	35	1	1	2	19	1	2	n/a	4190.409199	n/a
4191.209358	1.2003434	4	36	1	1	2	20	1	2	1	4191.609502	0.6195299
4192.409702	1.2005463	4	37	1	1	2	21	1	2	0	4192.809865	0.6154068
4193.610248	1.2002608	4	38	1	1	2	22	2	3	n/a	4194.010291	n/a
4194.810509	1.2004492	4	39	1	1	2	23	2	3	n/a	4195.21071	n/a
4196.010958	1.2003704	4	40	1	1	2	24	2	3	1	4196.411125	0.6146374
4197.211328	1.200458	4	41	1	1	2	25	1	3	0	4197.611531	0.7159627
4198.411786	1.2004207	4	42	1	1	2	26	1	4	0	4198.811917	0.6142066
4199.612207	1.2004213	4	43	1	1	2	27	2	5	0	4200.012363	0.6167392
4200.812628	1.2003957	4	44	1	1	2	28	1	6	1	4201.212754	0.6157444
4202.013024	1.20039	4	45	1	1	2	29	2	6	1	4202.413155	0.5153308
4203.213414	1.2004263	4	46	1	1	2	30	2	6	1	4203.613561	0.5149309
4204.413841	1.2004685	4	47	1	1	2	31	2	5	1	4204.813905	0.6135501
4205.614309	1.2003537	4	48	1	1	2	32	2	5	1	4206.014362	0.6129639
4206.814663	1.2003978	4	49	1	9	3	1	3	n/a	n/a	n/a	n/a
4208.01506	1.2005415	4	50	1	9	3	2	3	n/a	n/a	n/a	n/a
4209.215602	1.2002437	4	51	1	9	3	3	3	n/a	n/a	n/a	n/a
4210.415846	1.2003832	4	52	1	9	3	4	3	n/a	n/a	n/a	n/a
4211.616229	1.2004579	4	53	1	9	3	5	3	n/a	n/a	n/a	n/a
4212.816687	1.2003857	4	54	1	9	3	6	3	n/a	n/a	n/a	n/a
4214.017072	1.2005325	4	55	1	9	3	7	3	n/a	n/a	n/a	n/a
4215.217605	1.2004666	4	56	1	9	3	8	3	n/a	n/a	n/a	n/a
4216.418072	1.2002877	4	57	1	9	3	9	3	n/a	n/a	n/a	n/a
4217.618359	1.200458	4	58	1	9	3	10	3	n/a	n/a	n/a	n/a
4218.818817	1.2003803	4	59	1	9	3	11	3	n/a	n/a	n/a	n/a
4220.019198	1.2005027	4	60	1	9	3	12	3	n/a	n/a	n/a	n/a
4221.2197	1.2003136	4	61	1	9	3	13	3	n/a	n/a	n/a	n/a
4222.420014	1.2003363	4	62	1	9	3	14	3	n/a	n/a	n/a	n/a
4223.62035	1.2003895	4	63	1	9	3	15	3	n/a	n/a	n/a	n/a
4224.82074	1.2004517	4	64	1	9	3	16	3	n/a	n/a	n/a	n/a
4226.021191	1.2003752	4	65	1	3	4	1	2	5	0	4226.421383	0.4147657
4227.221567	1.2004331	4	66	1	3	4	2	1	6	1	4227.621743	0.5151575
4228.422	1.2004538	4	67	1	3	4	3	1	6	1	4228.822179	0.6158367
4229.622454	1.2003794	4	68	1	3	4	4	2	6	1	4230.022529	0.5161248
4230.822833	1.20047	4	69	1	3	4	5	1	5	1	4231.223125	0.5158945
4232.023303	1.2002919	4	70	1	3	4	6	1	5	1	4232.423391	0.6163298
4233.223595	1.2005147	4	71	1	3	4	7	1	5	1	4233.623768	0.6157772
4234.424109	1.2004152	4	72	1	3	4	8	1	4	1	4234.824253	0.6155893
4235.624525	1.2002934	4	73	1	3	4	9	2	4	1	4236.024615	0.5161131
4236.824818	1.200535	4	74	1	3	4	10	2	4	1	4237.224993	0.6157998
4238.025353	1.2002894	4	75	1	3	4	11	1	3	1	4238.425445	0.6163713
4239.225642	1.2006154	4	76	1	3	4	12	2	3	n/a	4239.625839	n/a
4240.426258	1.2002922	4	77	1	3	4	13	1	3	0	4240.826286	0.5158397
4241.62655	1.2003774	4	78	1	3	4	14	1	4	1	4242.026697	0.5162757
4242.826928	1.2004765	4	79	1	3	4	15	2	4	1	4243.227037	0.4169907
4244.027404	1.2003708	4	80	1	3	4	16	1	4	1	4244.427607	0.436687
4245.227775	1.2003593	4	81	1	3	4	17	1	3	1	4245.627874	0.5160301
4246.428134	1.2003972	4	82	1	3	4	18	2	3	1	4246.828322	0.4166466
4247.628531	1.2005056	4	83	1	3	4	19	2	3	1	4248.028722	0.6164925
4248.829037	1.2003137	4	84	1	3	4	20	2	2	0	4249.229139	0.5161995
4250.029351	1.2004171	4	85	1	3	4	21	2	3	1	4250.429461	0.4480341
4251.229768	1.200452	4	86	1	3	4	22	2	3	1	4251.629988	0.5166409
4252.43022	1.2003517	4	87	1	3	4	23	1	3	1	4252.830412	0.6161325
4253.630571	1.2004682	4	88	1	3	4	24	2	2	0	4254.030713	0.445498
4254.83104	1.2004444	4	89	1	3	4	25	2	3	0	4255.231303	0.438347
4256.031484	1.2003801	4	90	1	3	4	26	2	4	0	4256.431617	0.4164672
4257.231864	1.2003881	4	91	1	3	4	27	1	5	1	4257.631934	0.5159723
4258.432252	1.2004298	4	92	1	3	4	28	1	5	1	4258.832423	0.515904
4259.632682	1.200418	4	93	1	3	4	29	1	5	1	4260.032796	0.516159
4260.8331	1.2003294	4	94	1	3	4	30	1	4	n/a	4261.233258	n/a
4262.033429	1.2004678	4	95	1	3	4	31	1	4	1	4262.433635	0.6154275
4263.233897	1.2004429	4	96	1	3	4	32	1	4	1	4263.634039	0.5137866
4264.43434	1.2004099	4	97	1	9	5	1	3	n/a	n/a	n/a	n/a
4265.63475	1.2003738	4	98	1	9	5	2	3	n/a	n/a	n/a	n/a
4266.835124	1.2004243	4	99	1	9	5	3	3	n/a	n/a	n/a	n/a
4268.035548	1.2003625	4	100	1	9	5	4	3	n/a	n/a	n/a	n/a
4269.235911	1.2003786	4	101	1	9	5	5	3	n/a	n/a	n/a	n/a
4270.436289	1.2004633	4	102	1	9	5	6	3	n/a	n/a	n/a	n/a
4271.636752	1.2003943	4	103	1	9	5	7	3	n/a	n/a	n/a	n/a
4272.837147	1.2004063	4	104	1	9	5	8	3	n/a	n/a	n/a	n/a
4274.037553	1.2003927	4	105	1	9	5	9	3	n/a	n/a	n/a	n/a
4275.237946	1.2005166	4	106	1	9	5	10	3	n/a	n/a	n/a	n/a
4276.438462	1.2003401	4	107	1	9	5	11	3	n/a	n/a	n/a	n/a
4277.638802	1.200376	4	108	1	9	5	12	3	n/a	n/a	n/a	n/a
4278.839179	1.2004727	4	109	1	9	5	13	3	n/a	n/a	n/a	n/a
4280.039651	1.2003875	4	110	1	9	5	14	3	n/a	n/a	n/a	n/a
4281.240039	1.200446	4	111	1	9	5	15	3	n/a	n/a	n/a	n/a
4282.440485	1.2003746	4	112	1	9	5	16	3	n/a	n/a	n/a	n/a
4283.640859	1.2004248	4	113	1	5	6	1	2	4	1	4284.041043	0.512672
4284.841284	1.2003504	4	114	1	5	6	2	2	3	1	4285.241468	0.5135747
4286.041635	1.200454	4	115	1	5	6	3	1	3	1	4286.441957	0.7158616
4287.242089	1.2004663	4	116	1	5	6	4	1	3	1	4287.64222	0.6149422
4288.442555	1.200291	4	117	1	5	6	5	1	2	1	4288.842609	0.614693
4289.642846	1.2004569	4	118	1	5	6	6	2	2	1	4290.043034	0.7154813
4290.843303	1.2004724	4	119	1	5	6	7	1	2	0	4291.243474	0.7160636
4292.043775	1.2003774	4	120	1	5	6	8	1	3	1	4292.443801	0.6147599
4293.244153	1.2004104	4	121	1	5	6	9	1	3	0	4293.644287	0.6161847
4294.444563	1.2003987	4	122	1	5	6	10	1	4	1	4294.84483	0.7152941
4295.644962	1.2004536	4	123	1	5	6	11	1	4	1	4296.045098	0.5146985
4296.845415	1.2003718	4	124	1	5	6	12	1	4	1	4297.245501	0.7157989
4298.045787	1.2003874	4	125	1	5	6	13	1	3	1	4298.44602	0.6146141
4299.246174	1.2005306	4	126	1	5	6	14	1	3	1	4299.646324	0.6149573
4300.446705	1.2002587	4	127	1	5	6	15	1	3	1	4300.846811	0.7152054
4301.646964	1.2004221	4	128	1	5	6	16	2	2	1	4302.0471	0.7152705
4302.847386	1.2087219	4	129	1	5	6	17	1	2	1	4303.255885	0.7155176
4304.056108	1.2005278	4	130	1	5	6	18	2	2	1	4304.456333	0.7151569
4305.256635	1.2003596	4	131	1	5	6	19	1	2	1	4305.656684	0.6150126
4306.456995	1.2004303	4	132	1	5	6	20	1	2	1	4306.857072	0.6143971
4307.657425	1.2003114	4	133	1	5	6	21	1	2	1	4308.057634	0.7154142
4308.857737	1.2006507	4	134	1	5	6	22	2	2	n/a	4309.257924	n/a
4310.058388	1.2002147	4	135	1	5	6	23	1	2	n/a	4310.458401	n/a
4311.258602	1.200414	4	136	1	5	6	24	1	2	1	4311.658691	0.6146137
4312.459016	1.200427	4	137	1	5	6	25	2	2	1	4312.859181	0.6148755
4313.659443	1.2005461	4	138	1	5	6	26	2	2	1	4314.059587	0.6152516
4314.859989	1.2003006	4	139	1	5	6	27	1	2	n/a	4315.259942	n/a
4316.06029	1.2003314	4	140	1	5	6	28	1	2	0	4316.460401	0.415119
4317.260621	1.2004369	4	141	1	5	6	29	2	3	0	4317.660751	0.6141914
4318.461058	1.2004014	4	142	1	5	6	30	1	4	1	4318.861255	0.6147192
4319.66146	1.2003971	4	143	1	5	6	31	2	4	1	4320.061635	0.7148176
4320.861857	1.2004447	4	144	1	5	6	32	1	4	1	4321.262036	0.6141078
4322.062301	1.2004036	4	145	1	9	7	1	3	n/a	n/a	n/a	n/a
4323.262705	1.2003978	4	146	1	9	7	2	3	n/a	n/a	n/a	n/a
4324.463103	1.2005352	4	147	1	9	7	3	3	n/a	n/a	n/a	n/a
4325.663638	1.2002549	4	148	1	9	7	4	3	n/a	n/a	n/a	n/a
4326.863893	1.2004276	4	149	1	9	7	5	3	n/a	n/a	n/a	n/a
4328.06432	1.2005667	4	150	1	9	7	6	3	n/a	n/a	n/a	n/a
4329.264887	1.2002569	4	151	1	9	7	7	3	n/a	n/a	n/a	n/a
4330.465144	1.2004573	4	152	1	9	7	8	3	n/a	n/a	n/a	n/a
4331.665601	1.2003968	4	153	1	9	7	9	3	n/a	n/a	n/a	n/a
4332.865998	1.2004493	4	154	1	9	7	10	3	n/a	n/a	n/a	n/a
4334.066448	1.2003674	4	155	1	9	7	11	3	n/a	n/a	n/a	n/a
4335.266815	1.2003763	4	156	1	9	7	12	3	n/a	n/a	n/a	n/a
4336.467191	1.200418	4	157	1	9	7	13	3	n/a	n/a	n/a	n/a
4337.667609	1.2003986	4	158	1	9	7	14	3	n/a	n/a	n/a	n/a
4338.868008	1.2003796	4	159	1	9	7	15	3	n/a	n/a	n/a	n/a
4340.068387	1.2004124	4	160	1	9	7	16	3	n/a	n/a	n/a	n/a
4341.2688	1.2005001	4	161	1	7	8	1	2	3	1	4341.668982	0.4151824
4342.4693	1.2005126	4	162	1	7	8	2	2	3	0	4342.869439	0.4169586
4343.669813	1.2002521	4	163	1	7	8	3	2	4	0	4344.069822	0.5163958
4344.870065	1.200397	4	164	1	7	8	4	2	5	1	4345.27031	0.6164566
4346.070462	1.2003995	4	165	1	7	8	5	2	5	0	4346.470715	0.3166959
4347.270861	1.2004578	4	166	1	7	8	6	2	6	1	4347.670988	0.3160742
4348.471319	1.2003871	4	167	1	7	8	7	2	6	1	4348.871443	0.5166833
4349.671706	1.200445	4	168	1	7	8	8	2	6	1	4350.071935	0.4170786
4350.872151	1.2004712	4	169	1	7	8	9	1	5	1	4351.272357	0.4168089
4352.072622	1.2003269	4	170	1	7	8	10	2	5	1	4352.472693	0.4167231
4353.272949	1.2004751	4	171	1	7	8	11	2	5	0	4353.67308	0.4383986
4354.473424	1.2003286	4	172	1	7	8	12	1	6	1	4354.873538	0.5165329
4355.673753	1.2004235	4	173	1	7	8	13	2	6	1	4356.073914	0.4426241
4356.874176	1.2003833	4	174	1	7	8	14	2	6	1	4357.274379	0.4396331
4358.07456	1.2004358	4	175	1	7	8	15	2	5	1	4358.474787	0.616169
4359.274995	1.2004493	4	176	1	7	8	16	2	5	1	4359.675132	0.5154561
4360.475445	1.2003502	4	177	1	7	8	17	2	5	1	4360.875668	0.4180665
4361.675795	1.2004189	4	178	1	7	8	18	1	4	1	4362.076009	0.5161351
4362.876214	1.2003878	4	179	1	7	8	19	1	4	1	4363.27638	0.7085526
4364.076602	1.2003242	4	180	1	7	8	20	2	4	1	4364.476774	0.5166692
4365.276926	1.200476	4	181	1	7	8	21	1	3	1	4365.677172	0.6174914
4366.477402	1.2004067	4	182	1	7	8	22	1	3	n/a	4366.877589	n/a
4367.677808	1.2003974	4	183	1	7	8	23	1	3	1	4368.077987	0.6160136
4368.878206	1.2004259	4	184	1	7	8	24	2	3	0	4369.278407	0.4431643
4370.078632	1.2003945	4	185	1	7	8	25	1	4	0	4370.478747	0.3157673
4371.279026	1.2004009	4	186	1	7	8	26	1	5	0	4371.67924	0.3154878
4372.479427	1.2004152	4	187	1	7	8	27	1	6	0	4372.879637	0.6168374
4373.679842	1.200439	4	188	1	7	8	28	1	7	1	4374.080035	0.5159769
4374.880281	1.2004194	4	189	1	7	8	29	1	7	1	4375.280447	0.5151193
4376.080701	1.2003991	4	190	1	7	8	30	2	7	1	4376.480842	0.516063
4377.2811	1.2003919	4	191	1	7	8	31	2	6	1	4377.681277	0.5148876
4378.481492	1.200414	4	192	1	7	8	32	2	6	0	4378.881657	0.6137296
4379.681906	1.2004348	4	193	1	9	9	1	3	n/a	n/a	n/a	n/a
4380.882341	1.2005164	4	194	1	9	9	2	3	n/a	n/a	n/a	n/a
4382.082857	1.2002637	4	195	1	9	9	3	3	n/a	n/a	n/a	n/a
4383.283121	1.2004586	4	196	1	9	9	4	3	n/a	n/a	n/a	n/a
4384.483579	1.2004137	4	197	1	9	9	5	3	n/a	n/a	n/a	n/a
4385.683993	1.2004241	4	198	1	9	9	6	3	n/a	n/a	n/a	n/a
4386.884417	1.2003483	4	199	1	9	9	7	3	n/a	n/a	n/a	n/a
4388.084765	1.2004529	4	200	1	9	9	8	3	n/a	n/a	n/a	n/a
4389.285218	1.2004184	4	201	1	9	9	9	3	n/a	n/a	n/a	n/a
4390.485637	1.2004052	4	202	1	9	9	10	3	n/a	n/a	n/a	n/a
4391.686042	1.2003971	4	203	1	9	9	11	3	n/a	n/a	n/a	n/a
4392.886439	1.2003672	4	204	1	9	9	12	3	n/a	n/a	n/a	n/a
4394.086806	1.2004083	4	205	1	9	9	13	3	n/a	n/a	n/a	n/a
4395.287215	1.2004641	4	206	1	9	9	14	3	n/a	n/a	n/a	n/a
4396.487679	1.2003861	4	207	1	9	9	15	3	n/a	n/a	n/a	n/a
4397.688065	1.2003918	4	208	1	9	9	16	3	n/a	n/a	n/a	n/a
