onset	duration	run_number	trial_number	att_task	bar_direction	bar_period	bar_step	stim_noise_ori	stim_stair_val	response_val	probe_time	reaction_time
1259.702554	1.2671278	1	1	1	9	1	1	3	9	n/a	n/a	n/a
1260.978017	1.292123	1	2	1	9	1	2	3	9	n/a	n/a	n/a
1262.278482	1.2920921	1	3	1	9	1	3	3	9	n/a	n/a	n/a
1263.578934	1.2837626	1	4	1	9	1	4	3	9	n/a	n/a	n/a
1264.871014	1.2922585	1	5	1	9	1	5	3	9	n/a	n/a	n/a
1266.171369	1.2922293	1	6	1	9	1	6	3	9	n/a	n/a	n/a
1267.47192	1.2919571	1	7	1	9	1	7	3	9	n/a	n/a	n/a
1268.772189	1.2922653	1	8	1	9	1	8	3	9	n/a	n/a	n/a
1270.072805	1.2920665	1	9	1	9	1	9	3	9	n/a	n/a	n/a
1271.373288	1.2921837	1	10	1	9	1	10	3	9	n/a	n/a	n/a
1272.673692	1.2920412	1	11	1	9	1	11	3	9	n/a	n/a	n/a
1273.974096	1.2921585	1	12	1	9	1	12	3	9	n/a	n/a	n/a
1275.274622	1.2921103	1	13	1	9	1	13	3	9	n/a	n/a	n/a
1276.575147	1.2835941	1	14	1	9	1	14	3	9	n/a	n/a	n/a
1277.867239	1.292103	1	15	1	9	1	15	3	9	n/a	n/a	n/a
1279.167589	1.2920953	1	16	1	9	1	16	3	9	n/a	n/a	n/a
1280.484662	1.2921772	1	17	1	1	2	1	2	9	n/a	1280.859818	n/a
1281.785132	1.2921565	1	18	1	1	2	2	2	9	n/a	1282.160259	n/a
1283.085604	1.292145	1	19	1	1	2	3	2	9	n/a	1283.460702	n/a
1284.386022	1.2921128	1	20	1	1	2	4	1	9	n/a	1284.761247	n/a
1285.686463	1.3004222	1	21	1	1	2	5	2	9	n/a	1286.061589	n/a
1286.995277	1.3254101	1	22	1	1	2	6	2	9	n/a	1287.370392	n/a
1288.329072	1.4004601	1	23	1	1	2	7	1	9	n/a	1288.704166	n/a
1289.737885	1.2920626	1	24	1	1	2	8	1	9	n/a	1290.113029	n/a
1291.038321	1.2921096	1	25	1	1	2	9	1	9	n/a	1291.413444	n/a
1292.338724	1.2921548	1	26	1	1	2	10	1	9	n/a	1292.713857	n/a
1293.639291	1.291997	1	27	1	1	2	11	2	9	n/a	1294.014307	n/a
1294.939619	1.3171137	1	28	1	1	2	12	2	9	n/a	1295.314815	n/a
1296.265111	1.3171098	1	29	1	1	2	13	1	9	n/a	1296.64013	n/a
1297.590546	1.2921225	1	30	1	1	2	14	2	9	n/a	1297.965654	n/a
1298.891008	1.2921719	1	31	1	1	2	15	2	9	n/a	1299.266158	n/a
1300.1915	1.2920585	1	32	1	1	2	16	1	9	n/a	1300.566556	n/a
1301.491807	1.2923151	1	33	1	1	2	17	2	9	n/a	1301.867101	n/a
1302.792384	1.392036	1	34	1	1	2	18	2	9	n/a	1303.167461	n/a
1304.192759	1.2921245	1	35	1	1	2	19	1	9	n/a	1304.567937	n/a
1305.49333	1.3253794	1	36	1	1	2	20	1	9	n/a	1305.868346	n/a
1306.827047	1.3087329	1	37	1	1	2	21	2	9	n/a	1307.202147	n/a
1308.144235	1.2920289	1	38	1	1	2	22	2	9	n/a	1308.519287	n/a
1309.444615	1.2920605	1	39	1	1	2	23	1	9	n/a	1309.819761	n/a
1310.745006	1.2921442	1	40	1	1	2	24	1	9	n/a	1311.120177	n/a
1312.045438	1.2921235	1	41	1	1	2	25	1	9	n/a	1312.42057	n/a
1313.345893	1.2921148	1	42	1	1	2	26	2	9	n/a	1313.721032	n/a
1314.646403	1.2921224	1	43	1	1	2	27	1	9	n/a	1315.021502	n/a
1315.946833	1.292125	1	44	1	1	2	28	1	9	n/a	1316.321916	n/a
1317.247224	1.2921432	1	45	1	1	2	29	2	9	n/a	1317.622396	n/a
1318.547675	1.29216	1	46	1	1	2	30	2	9	n/a	1318.922794	n/a
1319.848186	1.2920531	1	47	1	1	2	31	2	9	n/a	1320.223244	n/a
1321.148585	1.3838209	1	48	1	1	2	32	1	9	n/a	1321.523685	n/a
1322.549041	1.29211	1	49	1	9	3	1	3	9	n/a	n/a	n/a
1323.849571	1.2919574	1	50	1	9	3	2	3	9	n/a	n/a	n/a
1325.149921	1.2920557	1	51	1	9	3	3	3	9	n/a	n/a	n/a
1326.450366	1.292109	1	52	1	9	3	4	3	9	n/a	n/a	n/a
1327.750808	1.2920496	1	53	1	9	3	5	3	9	n/a	n/a	n/a
1329.051371	1.2920323	1	54	1	9	3	6	3	9	n/a	n/a	n/a
1330.351703	1.2920648	1	55	1	9	3	7	3	9	n/a	n/a	n/a
1331.652143	1.283767	1	56	1	9	3	8	3	9	n/a	n/a	n/a
1332.944291	1.2921871	1	57	1	9	3	9	3	9	n/a	n/a	n/a
1334.244685	1.2921446	1	58	1	9	3	10	3	9	n/a	n/a	n/a
1335.545126	1.29219	1	59	1	9	3	11	3	9	n/a	n/a	n/a
1336.845583	1.2921841	1	60	1	9	3	12	3	9	n/a	n/a	n/a
1338.146065	1.2922125	1	61	1	9	3	13	3	9	n/a	n/a	n/a
1339.446491	1.2921596	1	62	1	9	3	14	3	9	n/a	n/a	n/a
1340.746953	1.2921239	1	63	1	9	3	15	3	9	n/a	n/a	n/a
1342.047405	1.2919948	1	64	1	9	3	16	3	9	n/a	n/a	n/a
1343.364541	1.2920132	1	65	1	3	4	1	1	9	n/a	1343.739538	n/a
1344.664956	1.2920334	1	66	1	3	4	2	1	9	n/a	1345.04	n/a
1345.965411	1.375486	1	67	1	3	4	3	2	9	n/a	1346.340528	n/a
1347.349201	1.2921676	1	68	1	3	4	4	2	9	n/a	1347.724297	n/a
1348.649606	1.2920817	1	69	1	3	4	5	2	9	n/a	1349.024777	n/a
1349.9501	1.2921652	1	70	1	3	4	6	2	9	n/a	1350.325293	n/a
1351.250529	1.292129	1	71	1	3	4	7	2	9	n/a	1351.625623	n/a
1352.550918	1.2921374	1	72	1	3	4	8	1	9	n/a	1352.926183	n/a
1353.851383	1.2921021	1	73	1	3	4	9	1	9	n/a	1354.226543	n/a
1355.15179	1.2922002	1	74	1	3	4	10	2	9	n/a	1355.526895	n/a
1356.45231	1.292197	1	75	1	3	4	11	1	9	n/a	1356.827508	n/a
1357.752671	1.3171052	1	76	1	3	4	12	1	9	n/a	1358.127861	n/a
1359.078103	1.2922857	1	77	1	3	4	13	2	9	n/a	1359.453417	n/a
1360.378659	1.2920629	1	78	1	3	4	14	2	9	n/a	1360.753757	n/a
1361.679045	1.3255473	1	79	1	3	4	15	2	9	n/a	1362.05418	n/a
1363.012886	1.2920493	1	80	1	3	4	16	1	9	n/a	1363.387914	n/a
1364.313292	1.2922058	1	81	1	3	4	17	1	9	n/a	1364.688438	n/a
1365.613728	1.3256126	1	82	1	3	4	18	2	9	n/a	1365.988882	n/a
1366.947485	1.2922002	1	83	1	3	4	19	2	9	n/a	1367.322586	n/a
1368.247913	1.2922075	1	84	1	3	4	20	1	9	n/a	1368.623198	n/a
1369.548481	1.3170749	1	85	1	3	4	21	1	9	n/a	1369.923599	n/a
1370.873859	1.2921652	1	86	1	3	4	22	1	9	n/a	1371.248975	n/a
1372.174281	1.3755575	1	87	1	3	4	23	2	9	n/a	1372.549401	n/a
1373.55822	1.291949	1	88	1	3	4	24	2	9	n/a	1373.933353	n/a
1374.858513	1.3171603	1	89	1	3	4	25	1	9	n/a	1375.233615	n/a
1376.183977	1.2922354	1	90	1	3	4	26	2	9	n/a	1376.559146	n/a
1377.484543	1.2920105	1	91	1	3	4	27	2	9	n/a	1377.85957	n/a
1378.784942	1.2919797	1	92	1	3	4	28	1	9	n/a	1379.16013	n/a
1380.085366	1.2921945	1	93	1	3	4	29	1	9	n/a	1380.460534	n/a
1381.385826	1.2920621	1	94	1	3	4	30	1	9	n/a	1381.760957	n/a
1382.686324	1.3837746	1	95	1	3	4	31	2	9	n/a	1383.061395	n/a
1384.07837	1.2920867	1	96	1	3	4	32	1	9	n/a	1384.453514	n/a
1385.395529	1.2920314	1	97	1	9	5	1	3	9	n/a	n/a	n/a
1386.695925	1.2920727	1	98	1	9	5	2	3	9	n/a	n/a	n/a
1387.996461	1.2921289	1	99	1	9	5	3	3	9	n/a	n/a	n/a
1389.296859	1.2920479	1	100	1	9	5	4	3	9	n/a	n/a	n/a
1390.597367	1.292025	1	101	1	9	5	5	3	9	n/a	n/a	n/a
1391.897701	1.2921531	1	102	1	9	5	6	3	9	n/a	n/a	n/a
1393.198148	1.2921444	1	103	1	9	5	7	3	9	n/a	n/a	n/a
1394.498544	1.283869	1	104	1	9	5	8	3	9	n/a	n/a	n/a
1395.790743	1.2920464	1	105	1	9	5	9	3	9	n/a	n/a	n/a
1397.091191	1.2920982	1	106	1	9	5	10	3	9	n/a	n/a	n/a
1398.391671	1.2919975	1	107	1	9	5	11	3	9	n/a	n/a	n/a
1399.692065	1.2921951	1	108	1	9	5	12	3	9	n/a	n/a	n/a
1400.992477	1.2921563	1	109	1	9	5	13	3	9	n/a	n/a	n/a
1402.292969	1.2921222	1	110	1	9	5	14	3	9	n/a	n/a	n/a
1403.593362	1.2921501	1	111	1	9	5	15	3	9	n/a	n/a	n/a
1404.893854	1.2920591	1	112	1	9	5	16	3	9	n/a	n/a	n/a
1406.210885	1.2922172	1	113	1	5	6	1	2	9	n/a	1406.58612	n/a
1407.511453	1.325352	1	114	1	5	6	2	1	9	n/a	1407.886532	n/a
1408.84524	1.292054	1	115	1	5	6	3	2	9	n/a	1409.220408	n/a
1410.145672	1.2920997	1	116	1	5	6	4	2	9	n/a	1410.520732	n/a
1411.446079	1.2920858	1	117	1	5	6	5	1	9	n/a	1411.821264	n/a
1412.746547	1.2920494	1	118	1	5	6	6	2	9	n/a	1413.12162	n/a
1414.046983	1.2920642	1	119	1	5	6	7	2	9	n/a	1414.422024	n/a
1415.347442	1.350352	1	120	1	5	6	8	2	9	n/a	1415.722591	n/a
1416.706275	1.292014	1	121	1	5	6	9	2	9	n/a	1417.081281	n/a
1418.006666	1.2920489	1	122	1	5	6	10	2	9	n/a	1418.381684	n/a
1419.307143	1.2920379	1	123	1	5	6	11	2	9	n/a	1419.682206	n/a
1420.607541	1.2920088	1	124	1	5	6	12	1	9	n/a	1420.982651	n/a
1421.908012	1.2921128	1	125	1	5	6	13	2	9	n/a	1422.283091	n/a
1423.208354	1.2922425	1	126	1	5	6	14	2	9	n/a	1423.583544	n/a
1424.508825	1.2837868	1	127	1	5	6	15	2	9	n/a	1424.884038	n/a
1425.800948	1.2921494	1	128	1	5	6	16	2	9	n/a	1426.17617	n/a
1427.10139	1.2920969	1	129	1	5	6	17	1	9	n/a	1427.476541	n/a
1428.401837	1.2922153	1	130	1	5	6	18	2	9	n/a	1428.776975	n/a
1429.702281	1.2921877	1	131	1	5	6	19	2	9	n/a	1430.077421	n/a
1431.002701	1.2922326	1	132	1	5	6	20	1	9	n/a	1431.377827	n/a
1432.303205	1.2920397	1	133	1	5	6	21	2	9	n/a	1432.678414	n/a
1433.603657	1.2921173	1	134	1	5	6	22	2	9	n/a	1433.978739	n/a
1434.904123	1.2920411	1	135	1	5	6	23	1	9	n/a	1435.279248	n/a
1436.204507	1.2921073	1	136	1	5	6	24	1	9	n/a	1436.57971	n/a
1437.504953	1.2920887	1	137	1	5	6	25	1	9	n/a	1437.88014	n/a
1438.805473	1.2921383	1	138	1	5	6	26	1	9	n/a	1439.180553	n/a
1440.105823	1.2921225	1	139	1	5	6	27	1	9	n/a	1440.481083	n/a
1441.406238	1.292172	1	140	1	5	6	28	2	9	n/a	1441.781447	n/a
1442.706722	1.292071	1	141	1	5	6	29	1	9	n/a	1443.081843	n/a
1444.007271	1.3170161	1	142	1	5	6	30	1	9	n/a	1444.382347	n/a
1445.332631	1.2921601	1	143	1	5	6	31	1	9	n/a	1445.707727	n/a
1446.633135	1.2920749	1	144	1	5	6	32	2	9	n/a	1447.008301	n/a
1447.941802	1.2921995	1	145	1	9	7	1	3	9	n/a	n/a	n/a
1449.242302	1.2921576	1	146	1	9	7	2	3	9	n/a	n/a	n/a
1450.542786	1.2920812	1	147	1	9	7	3	3	9	n/a	n/a	n/a
1451.843206	1.2837749	1	148	1	9	7	4	3	9	n/a	n/a	n/a
1453.135276	1.2921582	1	149	1	9	7	5	3	9	n/a	n/a	n/a
1454.43573	1.2920946	1	150	1	9	7	6	3	9	n/a	n/a	n/a
1455.736182	1.2921198	1	151	1	9	7	7	3	9	n/a	n/a	n/a
1457.036584	1.2921898	1	152	1	9	7	8	3	9	n/a	n/a	n/a
1458.337099	1.2920806	1	153	1	9	7	9	3	9	n/a	n/a	n/a
1459.637611	1.2920061	1	154	1	9	7	10	3	9	n/a	n/a	n/a
1460.937951	1.2837204	1	155	1	9	7	11	3	9	n/a	n/a	n/a
1462.230011	1.292266	1	156	1	9	7	12	3	9	n/a	n/a	n/a
1463.530513	1.2921009	1	157	1	9	7	13	3	9	n/a	n/a	n/a
1464.831005	1.2921189	1	158	1	9	7	14	3	9	n/a	n/a	n/a
1466.13144	1.2920888	1	159	1	9	7	15	3	9	n/a	n/a	n/a
1467.431886	1.2921223	1	160	1	9	7	16	3	9	n/a	n/a	n/a
1468.749011	1.2920213	1	161	1	7	8	1	2	9	n/a	1469.124141	n/a
1470.049473	1.2920527	1	162	1	7	8	2	1	9	n/a	1470.424569	n/a
1471.349893	1.2920606	1	163	1	7	8	3	2	9	n/a	1471.724974	n/a
1472.650295	1.2922042	1	164	1	7	8	4	1	9	n/a	1473.025463	n/a
1473.950683	1.2921374	1	165	1	7	8	5	1	9	n/a	1474.325861	n/a
1475.251275	1.2920221	1	166	1	7	8	6	1	9	n/a	1475.626377	n/a
1476.551665	1.2921081	1	167	1	7	8	7	1	9	n/a	1476.92675	n/a
1477.852111	1.2920335	1	168	1	7	8	8	2	9	n/a	1478.227212	n/a
1479.152527	1.29211	1	169	1	7	8	9	1	9	n/a	1479.527721	n/a
1480.452997	1.3337763	1	170	1	7	8	10	2	9	n/a	1480.828158	n/a
1481.795148	1.2921503	1	171	1	7	8	11	1	9	n/a	1482.170293	n/a
1483.095535	1.2921033	1	172	1	7	8	12	1	9	n/a	1483.470721	n/a
1484.396013	1.2920878	1	173	1	7	8	13	2	9	n/a	1484.771201	n/a
1485.696438	1.2921012	1	174	1	7	8	14	1	9	n/a	1486.071563	n/a
1486.996841	1.2921231	1	175	1	7	8	15	2	9	n/a	1487.37205	n/a
1488.297303	1.2921189	1	176	1	7	8	16	1	9	n/a	1488.672443	n/a
1489.597794	1.3254912	1	177	1	7	8	17	2	9	n/a	1489.972861	n/a
1490.931564	1.2920762	1	178	1	7	8	18	1	9	n/a	1491.306677	n/a
1492.232025	1.2920965	1	179	1	7	8	19	1	9	n/a	1492.607119	n/a
1493.532429	1.3254071	1	180	1	7	8	20	1	9	n/a	1493.907588	n/a
1494.866255	1.2920613	1	181	1	7	8	21	1	9	n/a	1495.241349	n/a
1496.166666	1.292144	1	182	1	7	8	22	1	9	n/a	1496.541798	n/a
1497.467181	1.2919965	1	183	1	7	8	23	1	9	n/a	1497.842287	n/a
1498.767562	1.2921616	1	184	1	7	8	24	1	9	n/a	1499.142676	n/a
1500.068042	1.3086602	1	185	1	7	8	25	2	9	n/a	1500.443231	n/a
1501.385097	1.2921481	1	186	1	7	8	26	1	9	n/a	1501.760217	n/a
1502.68563	1.2920115	1	187	1	7	8	27	1	9	n/a	1503.06069	n/a
1503.986003	1.2921334	1	188	1	7	8	28	2	9	n/a	1504.361166	n/a
1505.286443	1.2921278	1	189	1	7	8	29	1	9	n/a	1505.661589	n/a
1506.586852	1.2920989	1	190	1	7	8	30	2	9	n/a	1506.962058	n/a
1507.887369	1.2921065	1	191	1	7	8	31	1	9	n/a	1508.262552	n/a
1509.187742	1.2921397	1	192	1	7	8	32	1	9	n/a	1509.562907	n/a
1510.496608	1.2837176	1	193	1	9	9	1	3	9	n/a	n/a	n/a
1511.788717	1.2920572	1	194	1	9	9	2	3	9	n/a	n/a	n/a
1513.08914	1.2921155	1	195	1	9	9	3	3	9	n/a	n/a	n/a
1514.389623	1.292037	1	196	1	9	9	4	3	9	n/a	n/a	n/a
1515.689983	1.2922343	1	197	1	9	9	5	3	9	n/a	n/a	n/a
1516.990485	1.2920791	1	198	1	9	9	6	3	9	n/a	n/a	n/a
1518.290944	1.2837226	1	199	1	9	9	7	3	9	n/a	n/a	n/a
1519.582997	1.2921084	1	200	1	9	9	8	3	9	n/a	n/a	n/a
1520.883529	1.2837943	1	201	1	9	9	9	3	9	n/a	n/a	n/a
1522.175551	1.2921027	1	202	1	9	9	10	3	9	n/a	n/a	n/a
1523.476037	1.275427	1	203	1	9	9	11	3	9	n/a	n/a	n/a
1524.759722	1.2921937	1	204	1	9	9	12	3	9	n/a	n/a	n/a
1526.060218	1.2921364	1	205	1	9	9	13	3	9	n/a	n/a	n/a
1527.360669	1.292127	1	206	1	9	9	14	3	9	n/a	n/a	n/a
1528.66115	1.292025	1	207	1	9	9	15	3	9	n/a	n/a	n/a
1529.961614	1.2920408	1	208	1	9	9	16	3	9	n/a	n/a	n/a
