onset	duration	run_number	trial_number	att_task	bar_direction	bar_period	bar_step	stim_noise_ori	stim_stair_val	response_val	probe_time	reaction_time
1365.387139	1.1902775	1	1	1	9	1	1	3	9	n/a	n/a	n/a
1366.585681	1.1905047	1	2	1	9	1	2	3	9	n/a	n/a	n/a
1367.784561	1.1904792	1	3	1	9	1	3	3	9	n/a	n/a	n/a
1368.983214	1.1906927	1	4	1	9	1	4	3	9	n/a	n/a	n/a
1370.182941	1.1904801	1	5	1	9	1	5	3	9	n/a	n/a	n/a
1371.380877	1.1904215	1	6	1	9	1	6	3	9	n/a	n/a	n/a
1372.579622	1.1904983	1	7	1	9	1	7	3	9	n/a	n/a	n/a
1373.778328	1.190591	1	8	1	9	1	8	3	9	n/a	n/a	n/a
1374.977126	1.1905497	1	9	1	9	1	9	3	9	n/a	n/a	n/a
1376.175933	1.1905257	1	10	1	9	1	10	3	9	n/a	n/a	n/a
1377.374731	1.1905205	1	11	1	9	1	11	3	9	n/a	n/a	n/a
1378.573562	1.1904896	1	12	1	9	1	12	3	9	n/a	n/a	n/a
1379.772286	1.1905169	1	13	1	9	1	13	3	9	n/a	n/a	n/a
1380.971087	1.1905647	1	14	1	9	1	14	3	9	n/a	n/a	n/a
1382.169978	1.1904808	1	15	1	9	1	15	3	9	n/a	n/a	n/a
1383.368659	1.1905602	1	16	1	9	1	16	3	9	n/a	n/a	n/a
1384.585098	1.1895841	1	17	1	1	2	1	2	9	n/a	1384.925684	n/a
1385.782933	1.190536	1	18	1	1	2	2	2	9	n/a	1386.124515	n/a
1386.981703	1.1905358	1	19	1	1	2	3	2	9	n/a	1387.323295	n/a
1388.180503	1.2987881	1	20	1	1	2	4	2	9	n/a	1388.52208	n/a
1389.487578	1.2903896	1	21	1	1	2	5	1	9	n/a	1389.829932	n/a
1390.786247	1.2071602	1	22	1	1	2	6	2	9	n/a	1391.127843	n/a
1392.001676	1.1905254	1	23	1	1	2	7	2	9	n/a	1392.343122	n/a
1393.200491	1.2155112	1	24	1	1	2	8	1	9	n/a	1393.54185	n/a
1394.424268	1.1905026	1	25	1	1	2	9	1	9	n/a	1394.765635	n/a
1395.623043	1.1905362	1	26	1	1	2	10	2	9	n/a	1395.964482	n/a
1396.821834	1.1905719	1	27	1	1	2	11	2	9	n/a	1397.163245	n/a
1398.020702	1.1904811	1	28	1	1	2	12	1	9	n/a	1398.362045	n/a
1399.219462	1.2488068	1	29	1	1	2	13	2	9	n/a	1399.560815	n/a
1400.476478	1.1905926	1	30	1	1	2	14	2	9	n/a	1400.817877	n/a
1401.675367	1.2154503	1	31	1	1	2	15	2	9	n/a	1402.016678	n/a
1402.899136	1.2237822	1	32	1	1	2	16	1	9	n/a	1403.24045	n/a
1404.1312	1.3237231	1	33	1	1	2	17	2	9	n/a	1404.472525	n/a
1405.463243	1.1904162	1	34	1	1	2	18	2	9	n/a	1405.80451	n/a
1406.661952	1.1905407	1	35	1	1	2	19	2	9	n/a	1407.003324	n/a
1407.860762	1.1905125	1	36	1	1	2	20	2	9	n/a	1408.202185	n/a
1409.059566	1.1905121	1	37	1	1	2	21	2	9	n/a	1409.400942	n/a
1410.258319	1.1905811	1	38	1	1	2	22	2	9	n/a	1410.599728	n/a
1411.457173	1.1905066	1	39	1	1	2	23	2	9	n/a	1411.798581	n/a
1412.655956	1.1905918	1	40	1	1	2	24	2	9	n/a	1412.997402	n/a
1413.854813	1.2154837	1	41	1	1	2	25	2	9	n/a	1414.196148	n/a
1415.078494	1.2072038	1	42	1	1	2	26	2	9	n/a	1415.419892	n/a
1416.293965	1.1905862	1	43	1	1	2	27	2	9	n/a	1416.635349	n/a
1417.49285	1.3069974	1	44	1	1	2	28	2	9	n/a	1417.834178	n/a
1418.808153	1.1904995	1	45	1	1	2	29	1	9	n/a	1419.149469	n/a
1420.006905	1.2404756	1	46	1	1	2	30	1	9	n/a	1420.348386	n/a
1421.255648	1.1906115	1	47	1	1	2	31	2	9	n/a	1421.597035	n/a
1422.454421	1.1905584	1	48	1	1	2	32	1	9	n/a	1422.795817	n/a
1423.66248	1.1899392	1	49	1	9	3	1	3	9	n/a	n/a	n/a
1424.860584	1.1902807	1	50	1	9	3	2	3	9	n/a	n/a	n/a
1426.059148	1.1905069	1	51	1	9	3	3	3	9	n/a	n/a	n/a
1427.257954	1.1905162	1	52	1	9	3	4	3	9	n/a	n/a	n/a
1428.456756	1.1904731	1	53	1	9	3	5	3	9	n/a	n/a	n/a
1429.655546	1.1905677	1	54	1	9	3	6	3	9	n/a	n/a	n/a
1430.854328	1.1906825	1	55	1	9	3	7	3	9	n/a	n/a	n/a
1432.053254	1.1904884	1	56	1	9	3	8	3	9	n/a	n/a	n/a
1433.25195	1.1904928	1	57	1	9	3	9	3	9	n/a	n/a	n/a
1434.450718	1.1905148	1	58	1	9	3	10	3	9	n/a	n/a	n/a
1435.649515	1.1905199	1	59	1	9	3	11	3	9	n/a	n/a	n/a
1436.848315	1.190587	1	60	1	9	3	12	3	9	n/a	n/a	n/a
1438.047097	1.1905372	1	61	1	9	3	13	3	9	n/a	n/a	n/a
1439.245964	1.1906001	1	62	1	9	3	14	3	9	n/a	n/a	n/a
1440.444823	1.1904138	1	63	1	9	3	15	3	9	n/a	n/a	n/a
1441.643552	1.1904748	1	64	1	9	3	16	3	9	n/a	n/a	n/a
1442.850817	1.1903111	1	65	1	3	4	1	1	9	n/a	1443.191971	n/a
1444.049388	1.1905293	1	66	1	3	4	2	1	9	n/a	1444.390793	n/a
1445.248246	1.2737251	1	67	1	3	4	3	1	9	n/a	1445.589656	n/a
1446.530218	1.1905672	1	68	1	3	4	4	2	9	n/a	1446.871628	n/a
1447.729049	1.2904275	1	69	1	3	4	5	2	9	n/a	1448.070423	n/a
1449.027731	1.1905008	1	70	1	3	4	6	2	9	n/a	1449.369101	n/a
1450.226568	1.190511	1	71	1	3	4	7	2	9	n/a	1450.567874	n/a
1451.425336	1.1905314	1	72	1	3	4	8	1	9	n/a	1451.766728	n/a
1452.624242	1.3485694	1	73	1	3	4	9	1	9	n/a	1452.965528	n/a
1453.981149	1.2404242	1	74	1	3	4	10	1	9	n/a	1454.322467	n/a
1455.229868	1.2155201	1	75	1	3	4	11	1	9	n/a	1455.571279	n/a
1456.453724	1.1904449	1	76	1	3	4	12	2	9	n/a	1456.794987	n/a
1457.652397	1.2654802	1	77	1	3	4	13	1	9	n/a	1457.993759	n/a
1458.926124	1.2821093	1	78	1	3	4	14	1	9	n/a	1459.267523	n/a
1460.216521	1.2072575	1	79	1	3	4	15	1	9	n/a	1460.55785	n/a
1461.432049	1.2154304	1	80	1	3	4	16	1	9	n/a	1461.773338	n/a
1462.655731	1.2154998	1	81	1	3	4	17	2	9	n/a	1462.997091	n/a
1463.879511	1.2987957	1	82	1	3	4	18	1	9	n/a	1464.220909	n/a
1465.186562	1.190549	1	83	1	3	4	19	2	9	n/a	1465.527906	n/a
1466.385336	1.2071673	1	84	1	3	4	20	2	9	n/a	1466.726663	n/a
1467.60077	1.1905365	1	85	1	3	4	21	2	9	n/a	1467.942197	n/a
1468.799626	1.2071037	1	86	1	3	4	22	2	9	n/a	1469.140907	n/a
1470.015005	1.2155012	1	87	1	3	4	23	2	9	n/a	1470.35644	n/a
1471.23877	1.1905596	1	88	1	3	4	24	2	9	n/a	1471.580316	n/a
1472.437576	1.1905233	1	89	1	3	4	25	1	9	n/a	1472.778954	n/a
1473.636384	1.2072011	1	90	1	3	4	26	1	9	n/a	1473.977745	n/a
1474.851822	1.1988396	1	91	1	3	4	27	1	9	n/a	1475.193197	n/a
1476.05894	1.1905037	1	92	1	3	4	28	2	9	n/a	1476.400266	n/a
1477.257732	1.2987728	1	93	1	3	4	29	1	9	n/a	1477.599107	n/a
1478.564755	1.2571384	1	94	1	3	4	30	2	9	n/a	1478.90617	n/a
1479.830303	1.1903617	1	95	1	3	4	31	2	9	n/a	1480.171457	n/a
1481.028953	1.2071505	1	96	1	3	4	32	2	9	n/a	1481.370406	n/a
1482.252823	1.1904567	1	97	1	9	5	1	3	9	n/a	n/a	n/a
1483.451552	1.1904725	1	98	1	9	5	2	3	9	n/a	n/a	n/a
1484.650262	1.1905325	1	99	1	9	5	3	3	9	n/a	n/a	n/a
1485.849094	1.1905094	1	100	1	9	5	4	3	9	n/a	n/a	n/a
1487.047887	1.190529	1	101	1	9	5	5	3	9	n/a	n/a	n/a
1488.246684	1.1905674	1	102	1	9	5	6	3	9	n/a	n/a	n/a
1489.445479	1.1904901	1	103	1	9	5	7	3	9	n/a	n/a	n/a
1490.644305	1.1904875	1	104	1	9	5	8	3	9	n/a	n/a	n/a
1491.843096	1.1904924	1	105	1	9	5	9	3	9	n/a	n/a	n/a
1493.041878	1.1905171	1	106	1	9	5	10	3	9	n/a	n/a	n/a
1494.240668	1.1905612	1	107	1	9	5	11	3	9	n/a	n/a	n/a
1495.439442	1.1905405	1	108	1	9	5	12	3	9	n/a	n/a	n/a
1496.638268	1.1905086	1	109	1	9	5	13	3	9	n/a	n/a	n/a
1497.83707	1.1905334	1	110	1	9	5	14	3	9	n/a	n/a	n/a
1499.035855	1.1905295	1	111	1	9	5	15	3	9	n/a	n/a	n/a
1500.234649	1.1905651	1	112	1	9	5	16	3	9	n/a	n/a	n/a
1501.4502	1.1903937	1	113	1	5	6	1	1	9	n/a	1501.791427	n/a
1502.648934	1.2737236	1	114	1	5	6	2	1	9	n/a	1502.990228	n/a
1503.930944	1.1904996	1	115	1	5	6	3	2	9	n/a	1504.272302	n/a
1505.129735	1.1905841	1	116	1	5	6	4	2	9	n/a	1505.471129	n/a
1506.328526	1.1904986	1	117	1	5	6	5	1	9	n/a	1506.66989	n/a
1507.527314	1.1905319	1	118	1	5	6	6	2	9	n/a	1507.868691	n/a
1508.726096	1.2155782	1	119	1	5	6	7	1	9	n/a	1509.067452	n/a
1509.949974	1.1904387	1	120	1	5	6	8	1	9	n/a	1510.291242	n/a
1511.148717	1.1905175	1	121	1	5	6	9	2	9	n/a	1511.490042	n/a
1512.347475	1.1905339	1	122	1	5	6	10	2	9	n/a	1512.688908	n/a
1513.546297	1.1904979	1	123	1	5	6	11	2	9	n/a	1513.887648	n/a
1514.745082	1.2154998	1	124	1	5	6	12	1	9	n/a	1515.086436	n/a
1515.968842	1.1905345	1	125	1	5	6	13	2	9	n/a	1516.310244	n/a
1517.167706	1.190526	1	126	1	5	6	14	2	9	n/a	1517.509032	n/a
1518.3665	1.2071454	1	127	1	5	6	15	2	9	n/a	1518.70789	n/a
1519.581911	1.1904685	1	128	1	5	6	16	2	9	n/a	1519.923281	n/a
1520.780708	1.2155639	1	129	1	5	6	17	2	9	n/a	1521.122026	n/a
1522.004522	1.190464	1	130	1	5	6	18	2	9	n/a	1522.345864	n/a
1523.203195	1.1907143	1	131	1	5	6	19	2	9	n/a	1523.544619	n/a
1524.402108	1.1904565	1	132	1	5	6	20	1	9	n/a	1524.7435	n/a
1525.600838	1.1905144	1	133	1	5	6	21	1	9	n/a	1525.942218	n/a
1526.799651	1.2821126	1	134	1	5	6	22	1	9	n/a	1527.141011	n/a
1528.090068	1.2072054	1	135	1	5	6	23	2	9	n/a	1528.431416	n/a
1529.305526	1.1904633	1	136	1	5	6	24	2	9	n/a	1529.64686	n/a
1530.504234	1.1905461	1	137	1	5	6	25	2	9	n/a	1530.845636	n/a
1531.703056	1.1906199	1	138	1	5	6	26	2	9	n/a	1532.044524	n/a
1532.901871	1.190462	1	139	1	5	6	27	2	9	n/a	1533.243256	n/a
1534.100689	1.1904984	1	140	1	5	6	28	1	9	n/a	1534.442072	n/a
1535.299432	1.1906325	1	141	1	5	6	29	1	9	n/a	1535.640797	n/a
1536.498276	1.2487336	1	142	1	5	6	30	1	9	n/a	1536.839666	n/a
1537.755318	1.2154475	1	143	1	5	6	31	2	9	n/a	1538.096703	n/a
1538.979052	1.1905787	1	144	1	5	6	32	2	9	n/a	1539.320442	n/a
1540.1862	1.1905152	1	145	1	9	7	1	3	9	n/a	n/a	n/a
1541.384958	1.1906106	1	146	1	9	7	2	3	9	n/a	n/a	n/a
1542.583775	1.1905618	1	147	1	9	7	3	3	9	n/a	n/a	n/a
1543.782561	1.1905539	1	148	1	9	7	4	3	9	n/a	n/a	n/a
1544.981478	1.1904224	1	149	1	9	7	5	3	9	n/a	n/a	n/a
1546.180302	1.1903721	1	150	1	9	7	6	3	9	n/a	n/a	n/a
1547.379001	1.1905538	1	151	1	9	7	7	3	9	n/a	n/a	n/a
1548.577739	1.1905847	1	152	1	9	7	8	3	9	n/a	n/a	n/a
1549.776542	1.1905329	1	153	1	9	7	9	3	9	n/a	n/a	n/a
1550.975374	1.1904963	1	154	1	9	7	10	3	9	n/a	n/a	n/a
1552.17416	1.1904993	1	155	1	9	7	11	3	9	n/a	n/a	n/a
1553.373015	1.1905572	1	156	1	9	7	12	3	9	n/a	n/a	n/a
1554.571807	1.1904352	1	157	1	9	7	13	3	9	n/a	n/a	n/a
1555.770543	1.1905224	1	158	1	9	7	14	3	9	n/a	n/a	n/a
1556.969331	1.1905703	1	159	1	9	7	15	3	9	n/a	n/a	n/a
1558.168179	1.1905302	1	160	1	9	7	16	3	9	n/a	n/a	n/a
1559.375297	1.2071507	1	161	1	7	8	1	1	9	n/a	1559.716585	n/a
1560.590695	1.1905802	1	162	1	7	8	2	2	9	n/a	1560.932091	n/a
1561.789499	1.2155053	1	163	1	7	8	3	2	9	n/a	1562.130855	n/a
1563.013269	1.1905609	1	164	1	7	8	4	2	9	n/a	1563.354646	n/a
1564.212085	1.1905206	1	165	1	7	8	5	2	9	n/a	1564.553443	n/a
1565.410911	1.2154144	1	166	1	7	8	6	2	9	n/a	1565.752277	n/a
1566.634621	1.1989139	1	167	1	7	8	7	2	9	n/a	1566.976002	n/a
1567.841799	1.1905208	1	168	1	7	8	8	1	9	n/a	1568.183183	n/a
1569.040541	1.2820935	1	169	1	7	8	9	1	9	n/a	1569.381926	n/a
1570.330922	1.2238932	1	170	1	7	8	10	1	9	n/a	1570.672292	n/a
1571.563104	1.1987569	1	171	1	7	8	11	1	9	n/a	1571.904373	n/a
1572.770199	1.19045	1	172	1	7	8	12	2	9	n/a	1573.111493	n/a
1573.968929	1.1905236	1	173	1	7	8	13	2	9	n/a	1574.310297	n/a
1575.167736	1.1906222	1	174	1	7	8	14	2	9	n/a	1575.509192	n/a
1576.366582	1.207078	1	175	1	7	8	15	2	9	n/a	1576.707957	n/a
1577.58194	1.2155172	1	176	1	7	8	16	1	9	n/a	1577.923304	n/a
1578.80575	1.2072128	1	177	1	7	8	17	2	9	n/a	1579.14706	n/a
1580.021155	1.1905592	1	178	1	7	8	18	1	9	n/a	1580.362592	n/a
1581.22003	1.1904718	1	179	1	7	8	19	1	9	n/a	1581.561325	n/a
1582.418798	1.2404503	1	180	1	7	8	20	1	9	n/a	1582.760185	n/a
1583.667528	1.1905917	1	181	1	7	8	21	2	9	n/a	1584.008888	n/a
1584.866297	1.198879	1	182	1	7	8	22	2	9	n/a	1585.207696	n/a
1586.073441	1.1905196	1	183	1	7	8	23	2	9	n/a	1586.414808	n/a
1587.272252	1.1905239	1	184	1	7	8	24	1	9	n/a	1587.613602	n/a
1588.471025	1.2654562	1	185	1	7	8	25	2	9	n/a	1588.812402	n/a
1589.744754	1.1905418	1	186	1	7	8	26	2	9	n/a	1590.086128	n/a
1590.94353	1.1905309	1	187	1	7	8	27	2	9	n/a	1591.284986	n/a
1592.142324	1.1905641	1	188	1	7	8	28	1	9	n/a	1592.483759	n/a
1593.341153	1.1905231	1	189	1	7	8	29	2	9	n/a	1593.682483	n/a
1594.539997	1.1904642	1	190	1	7	8	30	1	9	n/a	1594.881281	n/a
1595.738757	1.215496	1	191	1	7	8	31	2	9	n/a	1596.080104	n/a
1596.96253	1.2071705	1	192	1	7	8	32	1	9	n/a	1597.303966	n/a
1598.186309	1.1905469	1	193	1	9	9	1	3	9	n/a	n/a	n/a
1599.385073	1.1905523	1	194	1	9	9	2	3	9	n/a	n/a	n/a
1600.583908	1.1904694	1	195	1	9	9	3	3	9	n/a	n/a	n/a
1601.782668	1.1905249	1	196	1	9	9	4	3	9	n/a	n/a	n/a
1602.981468	1.1905067	1	197	1	9	9	5	3	9	n/a	n/a	n/a
1604.180231	1.1905243	1	198	1	9	9	6	3	9	n/a	n/a	n/a
1605.379046	1.1904927	1	199	1	9	9	7	3	9	n/a	n/a	n/a
1606.577812	1.1907304	1	200	1	9	9	8	3	9	n/a	n/a	n/a
1607.776683	1.190776	1	201	1	9	9	9	3	9	n/a	n/a	n/a
1608.975891	1.190249	1	202	1	9	9	10	3	9	n/a	n/a	n/a
1610.174458	1.1903521	1	203	1	9	9	11	3	9	n/a	n/a	n/a
1611.373109	1.1904732	1	204	1	9	9	12	3	9	n/a	n/a	n/a
1612.571906	1.190459	1	205	1	9	9	13	3	9	n/a	n/a	n/a
1613.770726	1.1904607	1	206	1	9	9	14	3	9	n/a	n/a	n/a
1614.969412	1.1905642	1	207	1	9	9	15	3	9	n/a	n/a	n/a
1616.168239	1.1906534	1	208	1	9	9	16	3	9	n/a	n/a	n/a
