onset	duration	run_number	trial_number	att_task	bar_direction	bar_period	bar_step	stim_noise_ori	stim_stair_val	response_val	probe_time	reaction_time
27766.6541	1.2016542	1	1	1	9	1	1	3	n/a	n/a	n/a	n/a
27767.85575	1.20055	1	2	1	9	1	2	3	n/a	n/a	n/a	n/a
27769.0563	1.2002865	1	3	1	9	1	3	3	n/a	n/a	n/a	n/a
27770.25659	1.2003991	1	4	1	9	1	4	3	n/a	n/a	n/a	n/a
27771.45699	1.2003731	1	5	1	9	1	5	3	n/a	n/a	n/a	n/a
27772.65736	1.2004277	1	6	1	9	1	6	3	n/a	n/a	n/a	n/a
27773.85779	1.2004083	1	7	1	9	1	7	3	n/a	n/a	n/a	n/a
27775.0582	1.2004079	1	8	1	9	1	8	3	n/a	n/a	n/a	n/a
27776.25861	1.2004713	1	9	1	9	1	9	3	n/a	n/a	n/a	n/a
27777.45908	1.2003532	1	10	1	9	1	10	3	n/a	n/a	n/a	n/a
27778.65943	1.2003941	1	11	1	9	1	11	3	n/a	n/a	n/a	n/a
27779.85983	1.2003596	1	12	1	9	1	12	3	n/a	n/a	n/a	n/a
27781.06018	1.2004332	1	13	1	9	1	13	3	n/a	n/a	n/a	n/a
27782.26062	1.2004292	1	14	1	9	1	14	3	n/a	n/a	n/a	n/a
27783.46105	1.2003703	1	15	1	9	1	15	3	n/a	n/a	n/a	n/a
27784.66142	1.2004831	1	16	1	9	1	16	3	n/a	n/a	n/a	n/a
27785.8619	1.2003825	1	17	1	1	2	1	2	9	n/a	27786.26199	n/a
27787.06228	1.2004119	1	18	1	1	2	2	2	9	1	27787.46241	0.7170625
27788.26269	1.2003938	1	19	1	1	2	3	2	9	1	27788.66289	0.6159252
27789.46309	1.2004288	1	20	1	1	2	4	2	9	1	27789.86327	0.6156798
27790.66352	1.2003985	1	21	1	1	2	5	1	8	n/a	27791.06364	n/a
27791.86392	1.2004688	1	22	1	1	2	6	2	8	1	27792.26404	0.5160957
27793.06438	1.2003696	1	23	1	1	2	7	2	8	1	27793.46451	0.519088
27794.26475	1.2005268	1	24	1	1	2	8	2	8	1	27794.66486	0.5153087
27795.46528	1.2003084	1	25	1	1	2	9	1	7	1	27795.86529	0.5161804
27796.66559	1.200381	1	26	1	1	2	10	1	7	1	27797.0657	0.6159887
27797.86597	1.200465	1	27	1	1	2	11	2	7	1	27798.26605	0.4154661
27799.06644	1.2003896	1	28	1	1	2	12	1	6	1	27799.46652	0.5162051
27800.26683	1.2004661	1	29	1	1	2	13	2	6	1	27800.66704	0.6146105
27801.46729	1.2003052	1	30	1	1	2	14	2	6	1	27801.86736	0.7162411
27802.6676	1.2003878	1	31	1	1	2	15	2	5	n/a	27803.06776	n/a
27803.86798	1.2004263	1	32	1	1	2	16	2	5	0	27804.26815	0.3160979
27805.06841	1.2004183	1	33	1	1	2	17	1	6	1	27805.46852	0.6187282
27806.26883	1.2004703	1	34	1	1	2	18	1	6	n/a	27806.669	n/a
27807.4693	1.2003445	1	35	1	1	2	19	2	6	1	27807.86953	0.3151243
27808.66964	1.2004571	1	36	1	1	2	20	2	6	n/a	27809.06978	n/a
27809.8701	1.200368	1	37	1	1	2	21	1	6	1	27810.27024	0.6160304
27811.07047	1.2003913	1	38	1	1	2	22	2	5	1	27811.4707	0.6148126
27812.27086	1.2004576	1	39	1	1	2	23	2	5	n/a	27812.67098	n/a
27813.47132	1.2003405	1	40	1	1	2	24	2	5	0	27813.87142	0.6159813
27814.67166	1.2005764	1	41	1	1	2	25	1	6	1	27815.07184	0.6149985
27815.87223	1.2002436	1	42	1	1	2	26	1	6	1	27816.27226	0.6150411
27817.07248	1.2004576	1	43	1	1	2	27	1	6	1	27817.47262	0.6148844
27818.27294	1.2003855	1	44	1	1	2	28	1	5	n/a	27818.67306	n/a
27819.47332	1.2004188	1	45	1	1	2	29	2	5	0	27819.87343	0.6150993
27820.67374	1.2087616	1	46	1	1	2	30	2	6	1	27821.08227	0.6151032
27821.8825	1.2004006	1	47	1	1	2	31	1	6	0	27822.28265	0.5149499
27823.0829	1.2004381	1	48	1	1	2	32	1	7	0	27823.48311	0.6128199
27824.28334	1.2004743	1	49	1	9	3	1	3	n/a	n/a	n/a	n/a
27825.48381	1.2003215	1	50	1	9	3	2	3	n/a	n/a	n/a	n/a
27826.68414	1.2003991	1	51	1	9	3	3	3	n/a	n/a	n/a	n/a
27827.88454	1.2004149	1	52	1	9	3	4	3	n/a	n/a	n/a	n/a
27829.08495	1.2004548	1	53	1	9	3	5	3	n/a	n/a	n/a	n/a
27830.2854	1.2003312	1	54	1	9	3	6	3	n/a	n/a	n/a	n/a
27831.48574	1.2004593	1	55	1	9	3	7	3	n/a	n/a	n/a	n/a
27832.6862	1.2003733	1	56	1	9	3	8	3	n/a	n/a	n/a	n/a
27833.88657	1.2004249	1	57	1	9	3	9	3	n/a	n/a	n/a	n/a
27835.08699	1.2004643	1	58	1	9	3	10	3	n/a	n/a	n/a	n/a
27836.28746	1.2004558	1	59	1	9	3	11	3	n/a	n/a	n/a	n/a
27837.48791	1.2003598	1	60	1	9	3	12	3	n/a	n/a	n/a	n/a
27838.68827	1.2003348	1	61	1	9	3	13	3	n/a	n/a	n/a	n/a
27839.88861	1.2004252	1	62	1	9	3	14	3	n/a	n/a	n/a	n/a
27841.08903	1.2005477	1	63	1	9	3	15	3	n/a	n/a	n/a	n/a
27842.28958	1.2002972	1	64	1	9	3	16	3	n/a	n/a	n/a	n/a
27843.48988	1.2004006	1	65	1	3	4	1	1	8	1	27843.89005	0.7151292
27844.69028	1.2005544	1	66	1	3	4	2	1	8	1	27845.09045	0.6151478
27845.89083	1.2002273	1	67	1	3	4	3	2	8	1	27846.29076	0.5167338
27847.09106	1.2004855	1	68	1	3	4	4	2	7	1	27847.49128	0.6162241
27848.29155	1.2003893	1	69	1	3	4	5	1	7	1	27848.69167	0.616578
27849.49194	1.200328	1	70	1	3	4	6	2	7	1	27849.8921	0.4169917
27850.69226	1.2004648	1	71	1	3	4	7	2	6	0	27851.09258	0.3162765
27851.89273	1.2004889	1	72	1	3	4	8	2	7	n/a	27852.29293	n/a
27853.09322	1.2003166	1	73	1	3	4	9	1	7	1	27853.49325	0.5160075
27854.29353	1.2004247	1	74	1	3	4	10	1	7	1	27854.69367	0.5162703
27855.49396	1.2004049	1	75	1	3	4	11	1	7	1	27855.89405	0.4171415
27856.69436	1.200539	1	76	1	3	4	12	2	6	1	27857.0945	0.5165769
27857.8949	1.2003035	1	77	1	3	4	13	1	6	1	27858.29497	0.4170956
27859.09521	1.2003908	1	78	1	3	4	14	1	6	1	27859.49531	0.417393
27860.2956	1.200423	1	79	1	3	4	15	1	5	0	27860.69575	0.5161551
27861.49602	1.2003734	1	80	1	3	4	16	1	6	1	27861.89613	0.3458826
27862.69639	1.2005089	1	81	1	3	4	17	1	6	1	27863.09655	0.4168311
27863.8969	1.2002622	1	82	1	3	4	18	2	6	1	27864.297	0.5159413
27865.09716	1.2004795	1	83	1	3	4	19	2	5	1	27865.49734	0.7171478
27866.29764	1.2003871	1	84	1	3	4	20	2	5	1	27866.69775	0.6169616
27867.49803	1.2004413	1	85	1	3	4	21	1	5	1	27867.89814	0.5169275
27868.69847	1.2003583	1	86	1	3	4	22	1	4	1	27869.09854	0.7165253
27869.89883	1.2004521	1	87	1	3	4	23	2	4	0	27870.29906	0.7181721
27871.09928	1.2003454	1	88	1	3	4	24	2	5	1	27871.49938	0.516034
27872.29963	1.2005596	1	89	1	3	4	25	2	5	1	27872.69978	0.5166124
27873.50019	1.2003181	1	90	1	3	4	26	1	5	1	27873.90026	0.6161795
27874.70051	1.2003362	1	91	1	3	4	27	1	4	1	27875.1006	0.5157335
27875.90084	1.2004253	1	92	1	3	4	28	1	4	1	27876.30102	0.5170272
27877.10127	1.2004529	1	93	1	3	4	29	1	4	1	27877.50151	0.6165607
27878.30172	1.2003845	1	94	1	3	4	30	2	3	n/a	27878.70192	n/a
27879.5021	1.2004372	1	95	1	3	4	31	2	3	n/a	27879.90225	n/a
27880.70254	1.2004819	1	96	1	3	4	32	2	3	n/a	27881.10272	n/a
27881.90302	1.20044	1	97	1	9	5	1	3	n/a	n/a	n/a	n/a
27883.10346	1.2003287	1	98	1	9	5	2	3	n/a	n/a	n/a	n/a
27884.30379	1.2004075	1	99	1	9	5	3	3	n/a	n/a	n/a	n/a
27885.5042	1.2004077	1	100	1	9	5	4	3	n/a	n/a	n/a	n/a
27886.70461	1.2004257	1	101	1	9	5	5	3	n/a	n/a	n/a	n/a
27887.90503	1.2003661	1	102	1	9	5	6	3	n/a	n/a	n/a	n/a
27889.1054	1.2003929	1	103	1	9	5	7	3	n/a	n/a	n/a	n/a
27890.30579	1.2004387	1	104	1	9	5	8	3	n/a	n/a	n/a	n/a
27891.50623	1.2004119	1	105	1	9	5	9	3	n/a	n/a	n/a	n/a
27892.70664	1.2004408	1	106	1	9	5	10	3	n/a	n/a	n/a	n/a
27893.90708	1.2003323	1	107	1	9	5	11	3	n/a	n/a	n/a	n/a
27895.10742	1.200495	1	108	1	9	5	12	3	n/a	n/a	n/a	n/a
27896.30791	1.2003449	1	109	1	9	5	13	3	n/a	n/a	n/a	n/a
27897.50826	1.2004345	1	110	1	9	5	14	3	n/a	n/a	n/a	n/a
27898.70869	1.2004605	1	111	1	9	5	15	3	n/a	n/a	n/a	n/a
27899.90915	1.2003223	1	112	1	9	5	16	3	n/a	n/a	n/a	n/a
27901.10947	1.2004718	1	113	1	5	6	1	2	3	1	27901.50962	0.6126602
27902.30995	1.2003617	1	114	1	5	6	2	2	3	n/a	27902.71006	n/a
27903.51031	1.2005822	1	115	1	5	6	3	1	3	1	27903.91048	0.4156175
27904.71089	1.2003265	1	116	1	5	6	4	1	3	0	27905.11088	0.6151146
27905.91122	1.2003314	1	117	1	5	6	5	1	4	0	27906.31124	0.5155571
27907.11155	1.2004395	1	118	1	5	6	6	1	5	1	27907.51169	0.616102
27908.31199	1.2003589	1	119	1	5	6	7	1	5	1	27908.71211	0.7154711
27909.51235	1.2003855	1	120	1	5	6	8	2	5	1	27909.91251	0.6152906
27910.71273	1.200434	1	121	1	5	6	9	2	4	0	27911.11289	0.6156294
27911.91316	1.200396	1	122	1	5	6	10	1	5	1	27912.31333	0.5140476
27913.11356	1.2004831	1	123	1	5	6	11	2	5	1	27913.51375	0.5148184
27914.31404	1.2004294	1	124	1	5	6	12	1	5	1	27914.71423	0.5145882
27915.51447	1.2003364	1	125	1	5	6	13	1	4	1	27915.91454	0.514486
27916.71481	1.2003941	1	126	1	5	6	14	1	4	0	27917.11518	0.3147378
27917.9152	1.2004914	1	127	1	5	6	15	1	5	1	27918.31533	0.4158145
27919.1157	1.2003406	1	128	1	5	6	16	1	5	1	27919.51577	0.4155406
27920.31604	1.2003701	1	129	1	5	6	17	1	5	1	27920.71615	0.5149372
27921.51641	1.2006097	1	130	1	5	6	18	2	4	1	27921.9166	0.6163002
27922.71702	1.2002476	1	131	1	5	6	19	1	4	1	27923.11715	0.7159787
27923.91726	1.2004326	1	132	1	5	6	20	1	4	1	27924.31747	0.715362
27925.1177	1.2005003	1	133	1	5	6	21	1	3	n/a	27925.51785	n/a
27926.3182	1.200368	1	134	1	5	6	22	2	3	n/a	27926.71826	n/a
27927.51856	1.2004554	1	135	1	5	6	23	2	3	0	27927.91865	0.4154251
27928.71902	1.2003254	1	136	1	5	6	24	1	4	1	27929.11913	0.6154743
27929.91934	1.200385	1	137	1	5	6	25	2	4	n/a	27930.31947	n/a
27931.11973	1.2004982	1	138	1	5	6	26	1	4	1	27931.51989	0.6151566
27932.32023	1.2003427	1	139	1	5	6	27	1	4	1	27932.72031	0.7160086
27933.52057	1.2003841	1	140	1	5	6	28	2	3	n/a	27933.92067	n/a
27934.72095	1.2004392	1	141	1	5	6	29	1	3	n/a	27935.12109	n/a
27935.92139	1.2004053	1	142	1	5	6	30	2	3	n/a	27936.32151	n/a
27937.1218	1.2003479	1	143	1	5	6	31	1	3	1	27937.52199	-0.0858017
27938.32215	1.2004586	1	144	1	5	6	32	2	3	0	27938.72238	0.0138351
27939.52261	1.2004848	1	145	1	9	7	1	3	n/a	n/a	n/a	n/a
27940.72309	1.2003159	1	146	1	9	7	2	3	n/a	n/a	n/a	n/a
27941.92341	1.2003865	1	147	1	9	7	3	3	n/a	n/a	n/a	n/a
27943.12379	1.2004107	1	148	1	9	7	4	3	n/a	n/a	n/a	n/a
27944.3242	1.2004427	1	149	1	9	7	5	3	n/a	n/a	n/a	n/a
27945.52465	1.2004236	1	150	1	9	7	6	3	n/a	n/a	n/a	n/a
27946.72507	1.2004185	1	151	1	9	7	7	3	n/a	n/a	n/a	n/a
27947.92549	1.2003936	1	152	1	9	7	8	3	n/a	n/a	n/a	n/a
27949.12588	1.2004128	1	153	1	9	7	9	3	n/a	n/a	n/a	n/a
27950.32629	1.2004061	1	154	1	9	7	10	3	n/a	n/a	n/a	n/a
27951.5267	1.2004191	1	155	1	9	7	11	3	n/a	n/a	n/a	n/a
27952.72712	1.200398	1	156	1	9	7	12	3	n/a	n/a	n/a	n/a
27953.92752	1.2003985	1	157	1	9	7	13	3	n/a	n/a	n/a	n/a
27955.12792	1.2003943	1	158	1	9	7	14	3	n/a	n/a	n/a	n/a
27956.32831	1.2004441	1	159	1	9	7	15	3	n/a	n/a	n/a	n/a
27957.52875	1.2004053	1	160	1	9	7	16	3	n/a	n/a	n/a	n/a
27958.72916	1.2003681	1	161	1	7	8	1	1	4	1	27959.1293	0.5160615
27959.92953	1.2004318	1	162	1	7	8	2	2	4	1	27960.32966	0.4161143
27961.12996	1.2003421	1	163	1	7	8	3	2	4	1	27961.53011	0.3164918
27962.3303	1.2004252	1	164	1	7	8	4	1	3	1	27962.73047	0.416683
27963.53073	1.2003455	1	165	1	7	8	5	2	3	0	27963.93093	0.3160971
27964.73107	1.2004871	1	166	1	7	8	6	2	4	n/a	27965.13128	n/a
27965.93156	1.2005018	1	167	1	7	8	7	1	4	1	27966.33173	0.4161084
27967.13206	1.2003577	1	168	1	7	8	8	1	4	1	27967.53214	0.4163338
27968.33242	1.2003595	1	169	1	7	8	9	1	4	0	27968.73253	0.416144
27969.53278	1.200466	1	170	1	7	8	10	1	5	1	27969.93295	0.5162561
27970.73325	1.2003367	1	171	1	7	8	11	2	5	0	27971.13338	0.4162752
27971.93358	1.2004765	1	172	1	7	8	12	1	6	1	27972.33377	0.5163966
27973.13406	1.200363	1	173	1	7	8	13	1	6	1	27973.5342	0.3160294
27974.33442	1.2004441	1	174	1	7	8	14	2	6	1	27974.7346	0.5164601
27975.53487	1.2003581	1	175	1	7	8	15	1	5	1	27975.93494	0.5157917
27976.73522	1.2004064	1	176	1	7	8	16	2	5	1	27977.13538	0.5161395
27977.93563	1.2004474	1	177	1	7	8	17	1	5	1	27978.33577	0.4163677
27979.13608	1.2004753	1	178	1	7	8	18	1	4	0	27979.5362	0.4161999
27980.33655	1.2003496	1	179	1	7	8	19	2	5	1	27980.73663	0.6160361
27981.5369	1.2004216	1	180	1	7	8	20	2	5	1	27981.93707	0.6158616
27982.73732	1.201224786	1	181	1	7	8	21	1	5	1	27983.13746	0.5160592
27983.93855	1.199554214	1	182	1	7	8	22	1	4	n/a	27984.33783	n/a
27985.1381	1.2004542	1	183	1	7	8	23	2	4	1	27985.53824	0.5157189
27986.33856	1.2003796	1	184	1	7	8	24	1	4	1	27986.73867	0.6161022
27987.53894	1.2005471	1	185	1	7	8	25	2	4	1	27987.9391	0.615838
27988.73948	1.2003073	1	186	1	7	8	26	1	3	n/a	27989.13947	n/a
27989.93979	1.2003938	1	187	1	7	8	27	1	3	0	27990.33993	0.6158276
27991.14018	1.2003783	1	188	1	7	8	28	2	4	0	27991.54028	0.3159058
27992.34056	1.200416	1	189	1	7	8	29	2	5	0	27992.74068	0.4167693
27993.54098	1.2004327	1	190	1	7	8	30	1	6	1	27993.94115	0.5157833
27994.74141	1.200402	1	191	1	7	8	31	2	6	1	27995.1415	0.6151995
27995.94181	1.2003978	1	192	1	7	8	32	2	6	1	27996.34193	0.5134357
27997.14221	1.2004126	1	193	1	9	9	1	3	n/a	n/a	n/a	n/a
27998.34262	1.2004494	1	194	1	9	9	2	3	n/a	n/a	n/a	n/a
27999.54307	1.2003514	1	195	1	9	9	3	3	n/a	n/a	n/a	n/a
28000.74343	1.2003985	1	196	1	9	9	4	3	n/a	n/a	n/a	n/a
28001.94382	1.2004628	1	197	1	9	9	5	3	n/a	n/a	n/a	n/a
28003.14429	1.2004126	1	198	1	9	9	6	3	n/a	n/a	n/a	n/a
28004.3447	1.2003784	1	199	1	9	9	7	3	n/a	n/a	n/a	n/a
28005.54508	1.2004285	1	200	1	9	9	8	3	n/a	n/a	n/a	n/a
28006.74551	1.2004322	1	201	1	9	9	9	3	n/a	n/a	n/a	n/a
28007.94594	1.2003415	1	202	1	9	9	10	3	n/a	n/a	n/a	n/a
28009.14628	1.2004497	1	203	1	9	9	11	3	n/a	n/a	n/a	n/a
28010.34673	1.2004331	1	204	1	9	9	12	3	n/a	n/a	n/a	n/a
28011.54716	1.2003977	1	205	1	9	9	13	3	n/a	n/a	n/a	n/a
28012.74756	1.2004196	1	206	1	9	9	14	3	n/a	n/a	n/a	n/a
28013.94798	1.2003662	1	207	1	9	9	15	3	n/a	n/a	n/a	n/a
28015.14835	1.200512	1	208	1	9	9	16	3	n/a	n/a	n/a	n/a
