onset	duration	run_number	trial_number	att_task	bar_direction	bar_period	bar_step	stim_noise_ori	stim_stair_val	response_val	probe_time	reaction_time
28069.97623	1.199615	2	1	1	9	1	1	3	n/a	n/a	n/a	n/a
28071.17585	1.2005081	2	2	1	9	1	2	3	n/a	n/a	n/a	n/a
28072.37635	1.2002988	2	3	1	9	1	3	3	n/a	n/a	n/a	n/a
28073.57665	1.2004378	2	4	1	9	1	4	3	n/a	n/a	n/a	n/a
28074.77709	1.2004662	2	5	1	9	1	5	3	n/a	n/a	n/a	n/a
28075.97756	1.2003041	2	6	1	9	1	6	3	n/a	n/a	n/a	n/a
28077.17786	1.2004206	2	7	1	9	1	7	3	n/a	n/a	n/a	n/a
28078.37828	1.2004289	2	8	1	9	1	8	3	n/a	n/a	n/a	n/a
28079.57871	1.20045	2	9	1	9	1	9	3	n/a	n/a	n/a	n/a
28080.77916	1.2003506	2	10	1	9	1	10	3	n/a	n/a	n/a	n/a
28081.97951	1.2005074	2	11	1	9	1	11	3	n/a	n/a	n/a	n/a
28083.18002	1.2004549	2	12	1	9	1	12	3	n/a	n/a	n/a	n/a
28084.38047	1.2002739	2	13	1	9	1	13	3	n/a	n/a	n/a	n/a
28085.58075	1.2004604	2	14	1	9	1	14	3	n/a	n/a	n/a	n/a
28086.78121	1.2003546	2	15	1	9	1	15	3	n/a	n/a	n/a	n/a
28087.98156	1.2004456	2	16	1	9	1	16	3	n/a	n/a	n/a	n/a
28089.18201	1.2004243	2	17	1	1	2	1	2	5	1	28089.58221	0.4156918
28090.38243	1.2004023	2	18	1	1	2	2	2	5	0	28090.78257	0.5154992
28091.58284	1.2005496	2	19	1	1	2	3	2	6	1	28091.9831	0.7167679
28092.78338	1.2002152	2	20	1	1	2	4	2	6	1	28093.18334	0.71677
28093.9836	1.2005072	2	21	1	1	2	5	2	6	n/a	28094.38375	n/a
28095.18411	1.200369	2	22	1	1	2	6	1	6	1	28095.58423	0.7162693
28096.38448	1.2003933	2	23	1	1	2	7	2	5	1	28096.78457	0.5183197
28097.58487	1.2003933	2	24	1	1	2	8	2	5	1	28097.98508	0.5199922
28098.78526	1.2003912	2	25	1	1	2	9	2	5	n/a	28099.18541	n/a
28099.98565	1.2004785	2	26	1	1	2	10	2	5	1	28100.38584	0.4158148
28101.18613	1.2003784	2	27	1	1	2	11	1	4	1	28101.58621	0.5185775
28102.38651	1.2003913	2	28	1	1	2	12	2	4	1	28102.78664	0.614967
28103.5869	1.2004994	2	29	1	1	2	13	2	4	n/a	28103.98712	n/a
28104.7874	1.2003878	2	30	1	1	2	14	2	4	n/a	28105.18742	n/a
28105.98779	1.2003265	2	31	1	1	2	15	1	4	1	28106.38788	0.5161499
28107.18812	1.2003849	2	32	1	1	2	16	1	3	1	28107.58836	0.419761
28108.3885	1.2004509	2	33	1	1	2	17	2	3	1	28108.78869	0.4152592
28109.58895	1.2004145	2	34	1	1	2	18	2	3	1	28109.98905	0.6152054
28110.78937	1.2003678	2	35	1	1	2	19	1	2	0	28111.18955	0.5157919
28111.98973	1.2004933	2	36	1	1	2	20	2	3	0	28112.38993	0.6156139
28113.19023	1.2003259	2	37	1	1	2	21	1	4	1	28113.59032	0.6160039
28114.39055	1.2004321	2	38	1	1	2	22	2	4	0	28114.7907	0.514924
28115.59099	1.2004427	2	39	1	1	2	23	1	5	1	28115.99123	0.5157223
28116.79143	1.2004093	2	40	1	1	2	24	1	5	1	28117.1915	0.5149852
28117.99184	1.2004285	2	41	1	1	2	25	1	5	1	28118.39201	0.6147505
28119.19227	1.2003398	2	42	1	1	2	26	2	4	n/a	28119.59234	n/a
28120.39261	1.2004139	2	43	1	1	2	27	2	4	n/a	28120.79281	n/a
28121.59302	1.2004563	2	44	1	1	2	28	1	4	n/a	28121.9932	n/a
28122.79348	1.2004172	2	45	1	1	2	29	1	4	n/a	28123.19356	n/a
28123.99389	1.2003797	2	46	1	1	2	30	1	4	n/a	28124.39403	n/a
28125.19427	1.2005786	2	47	1	1	2	31	2	4	0	28125.59447	0.0157685
28126.39485	1.2003177	2	48	1	1	2	32	1	5	0	28126.79486	0.5134213
28127.59517	1.2003813	2	49	1	9	3	1	3	n/a	n/a	n/a	n/a
28128.79555	1.2003642	2	50	1	9	3	2	3	n/a	n/a	n/a	n/a
28129.99591	1.2004373	2	51	1	9	3	3	3	n/a	n/a	n/a	n/a
28131.19635	1.2003914	2	52	1	9	3	4	3	n/a	n/a	n/a	n/a
28132.39674	1.2003673	2	53	1	9	3	5	3	n/a	n/a	n/a	n/a
28133.59711	1.20047	2	54	1	9	3	6	3	n/a	n/a	n/a	n/a
28134.79758	1.2003942	2	55	1	9	3	7	3	n/a	n/a	n/a	n/a
28135.99797	1.2003945	2	56	1	9	3	8	3	n/a	n/a	n/a	n/a
28137.19837	1.2004476	2	57	1	9	3	9	3	n/a	n/a	n/a	n/a
28138.39882	1.2004135	2	58	1	9	3	10	3	n/a	n/a	n/a	n/a
28139.59923	1.2003437	2	59	1	9	3	11	3	n/a	n/a	n/a	n/a
28140.79957	1.2004307	2	60	1	9	3	12	3	n/a	n/a	n/a	n/a
28142	1.2004057	2	61	1	9	3	13	3	n/a	n/a	n/a	n/a
28143.20041	1.2003813	2	62	1	9	3	14	3	n/a	n/a	n/a	n/a
28144.40079	1.2005127	2	63	1	9	3	15	3	n/a	n/a	n/a	n/a
28145.6013	1.2004085	2	64	1	9	3	16	3	n/a	n/a	n/a	n/a
28146.80171	1.2004239	2	65	1	3	4	1	1	6	1	28147.2018	0.6137783
28148.00214	1.2003404	2	66	1	3	4	2	1	6	1	28148.40222	0.5147031
28149.20248	1.2004404	2	67	1	3	4	3	2	6	1	28149.60256	0.5171556
28150.40292	1.2004124	2	68	1	3	4	4	1	5	1	28150.80303	0.4446505
28151.60333	1.2003479	2	69	1	3	4	5	1	5	1	28152.00346	0.4170528
28152.80368	1.2005236	2	70	1	3	4	6	1	5	1	28153.20388	0.4174198
28154.0042	1.2003764	2	71	1	3	4	7	2	4	1	28154.40435	0.516131
28155.20458	1.2004427	2	72	1	3	4	8	1	4	1	28155.60462	0.4170666
28156.40502	1.2003858	2	73	1	3	4	9	1	4	1	28156.80506	0.5163037
28157.60541	1.2004302	2	74	1	3	4	10	2	3	1	28158.00552	0.7168862
28158.80584	1.2003644	2	75	1	3	4	11	2	3	1	28159.20584	0.717615
28160.0062	1.2003757	2	76	1	3	4	12	1	3	1	28160.4063	0.418209
28161.20658	1.2004143	2	77	1	3	4	13	1	2	1	28161.60667	0.4175525
28162.40699	1.2004379	2	78	1	3	4	14	1	2	1	28162.80718	0.4167682
28163.60743	1.2005063	2	79	1	3	4	15	2	2	1	28164.00747	0.5161924
28164.80794	1.2002252	2	80	1	3	4	16	2	2	0	28165.20793	0.4178812
28166.00816	1.2004489	2	81	1	3	4	17	1	3	1	28166.40839	0.3161279
28167.20861	1.2004241	2	82	1	3	4	18	1	3	1	28167.60882	0.4164536
28168.40903	1.2003961	2	83	1	3	4	19	1	3	1	28168.80915	0.5164763
28169.60943	1.2005351	2	84	1	3	4	20	2	2	0	28170.00959	0.6160618
28170.80996	1.2003401	2	85	1	3	4	21	2	3	1	28171.20996	0.4169413
28172.0103	1.2003816	2	86	1	3	4	22	1	3	1	28172.4104	0.516261
28173.21069	1.2003813	2	87	1	3	4	23	2	3	1	28173.6108	0.4170413
28174.41107	1.2004576	2	88	1	3	4	24	2	2	1	28174.81121	0.4173068
28175.61153	1.2003469	2	89	1	3	4	25	2	2	0	28176.01163	0.6154847
28176.81187	1.2004115	2	90	1	3	4	26	2	3	n/a	28177.21204	n/a
28178.01228	1.2003856	2	91	1	3	4	27	2	3	1	28178.41247	0.5162512
28179.21267	1.2005104	2	92	1	3	4	28	1	3	0	28179.61286	0.5161648
28180.41318	1.2003444	2	93	1	3	4	29	2	4	1	28180.81325	0.6167373
28181.61352	1.2004243	2	94	1	3	4	30	1	4	1	28182.01373	0.5167667
28182.81395	1.2004571	2	95	1	3	4	31	1	4	1	28183.21411	0.6152736
28184.01441	1.2003544	2	96	1	3	4	32	2	3	1	28184.41456	0.6135762
28185.21476	1.2004698	2	97	1	9	5	1	3	n/a	n/a	n/a	n/a
28186.41523	1.2003481	2	98	1	9	5	2	3	n/a	n/a	n/a	n/a
28187.61558	1.2003981	2	99	1	9	5	3	3	n/a	n/a	n/a	n/a
28188.81598	1.2004533	2	100	1	9	5	4	3	n/a	n/a	n/a	n/a
28190.01643	1.2003544	2	101	1	9	5	5	3	n/a	n/a	n/a	n/a
28191.21678	1.2004965	2	102	1	9	5	6	3	n/a	n/a	n/a	n/a
28192.41728	1.2003373	2	103	1	9	5	7	3	n/a	n/a	n/a	n/a
28193.61762	1.2004754	2	104	1	9	5	8	3	n/a	n/a	n/a	n/a
28194.81809	1.2003239	2	105	1	9	5	9	3	n/a	n/a	n/a	n/a
28196.01842	1.2004476	2	106	1	9	5	10	3	n/a	n/a	n/a	n/a
28197.21886	1.2004906	2	107	1	9	5	11	3	n/a	n/a	n/a	n/a
28198.41935	1.2003521	2	108	1	9	5	12	3	n/a	n/a	n/a	n/a
28199.61971	1.2003862	2	109	1	9	5	13	3	n/a	n/a	n/a	n/a
28200.82009	1.2003445	2	110	1	9	5	14	3	n/a	n/a	n/a	n/a
28202.02044	1.2005184	2	111	1	9	5	15	3	n/a	n/a	n/a	n/a
28203.22096	1.2003268	2	112	1	9	5	16	3	n/a	n/a	n/a	n/a
28204.42128	1.200461	2	113	1	5	6	1	1	3	0	28204.82146	0.512838
28205.62174	1.2003585	2	114	1	5	6	2	1	4	1	28206.02187	0.6143042
28206.8221	1.2004296	2	115	1	5	6	3	1	4	1	28207.2223	0.5148126
28208.02253	1.200444	2	116	1	5	6	4	1	4	0	28208.42269	0.51498
28209.22298	1.2003632	2	117	1	5	6	5	1	5	1	28209.62311	0.7152116
28210.42334	1.2003983	2	118	1	5	6	6	1	5	1	28210.82364	0.5145543
28211.62374	1.2005259	2	119	1	5	6	7	1	5	0	28212.02388	0.4157895
28212.82426	1.2003934	2	120	1	5	6	8	2	6	1	28213.22431	0.5148691
28214.02466	1.2003662	2	121	1	5	6	9	2	6	1	28214.42475	0.514576
28215.22502	1.200337	2	122	1	5	6	10	1	6	1	28215.62515	0.6147103
28216.42536	1.2005761	2	123	1	5	6	11	1	5	1	28216.82557	0.514685
28217.62594	1.2003502	2	124	1	5	6	12	2	5	1	28218.02597	0.4151774
28218.82629	1.2004257	2	125	1	5	6	13	2	5	0	28219.22649	0.4153656
28220.02671	1.2003568	2	126	1	5	6	14	2	6	1	28220.42678	0.6149281
28221.22707	1.2003977	2	127	1	5	6	15	1	6	1	28221.62729	0.5147985
28222.42747	1.2004089	2	128	1	5	6	16	2	6	1	28222.82764	0.5146763
28223.62788	1.2004106	2	129	1	5	6	17	2	5	1	28224.02799	0.5145267
28224.82829	1.2004268	2	130	1	5	6	18	1	5	1	28225.22839	0.5153394
28226.02871	1.2004287	2	131	1	5	6	19	1	5	1	28226.42884	0.614931
28227.22914	1.2003727	2	132	1	5	6	20	1	4	0	28227.62925	0.5149379
28228.42951	1.2003937	2	133	1	5	6	21	1	5	0	28228.82964	0.5147197
28229.62991	1.2003817	2	134	1	5	6	22	2	6	0	28230.03004	0.3147101
28230.83029	1.2004346	2	135	1	5	6	23	1	7	1	28231.23055	0.5147725
28232.03072	1.2004665	2	136	1	5	6	24	1	7	1	28232.43086	0.6149651
28233.23119	1.2003278	2	137	1	5	6	25	2	7	1	28233.63129	0.6147309
28234.43152	1.2004431	2	138	1	5	6	26	2	6	1	28234.83172	0.51472
28235.63196	1.2005623	2	139	1	5	6	27	1	6	1	28236.03209	0.5145388
28236.83252	1.2002279	2	140	1	5	6	28	2	6	1	28237.23255	0.515288
28238.03275	1.2004715	2	141	1	5	6	29	2	5	0	28238.43291	0.716006
28239.23322	1.200357	2	142	1	5	6	30	1	6	1	28239.6333	0.6147871
28240.43358	1.2005656	2	143	1	5	6	31	1	6	1	28240.83375	0.6140013
28241.63415	1.2420357	2	144	1	5	6	32	2	6	0	28242.07582	0.5129276
28242.87618	1.2003621	2	145	1	9	7	1	3	n/a	n/a	n/a	n/a
28244.07654	1.2004038	2	146	1	9	7	2	3	n/a	n/a	n/a	n/a
28245.27695	1.2004683	2	147	1	9	7	3	3	n/a	n/a	n/a	n/a
28246.47742	1.2003615	2	148	1	9	7	4	3	n/a	n/a	n/a	n/a
28247.67778	1.2003311	2	149	1	9	7	5	3	n/a	n/a	n/a	n/a
28248.87811	1.2005697	2	150	1	9	7	6	3	n/a	n/a	n/a	n/a
28250.07868	1.200303	2	151	1	9	7	7	3	n/a	n/a	n/a	n/a
28251.27898	1.2004195	2	152	1	9	7	8	3	n/a	n/a	n/a	n/a
28252.4794	1.2005331	2	153	1	9	7	9	3	n/a	n/a	n/a	n/a
28253.67993	1.2003455	2	154	1	9	7	10	3	n/a	n/a	n/a	n/a
28254.88028	1.2003169	2	155	1	9	7	11	3	n/a	n/a	n/a	n/a
28256.0806	1.200456	2	156	1	9	7	12	3	n/a	n/a	n/a	n/a
28257.28105	1.200473	2	157	1	9	7	13	3	n/a	n/a	n/a	n/a
28258.48153	1.2086293	2	158	1	9	7	14	3	n/a	n/a	n/a	n/a
28259.69015	1.2004109	2	159	1	9	7	15	3	n/a	n/a	n/a	n/a
28260.89057	1.200486	2	160	1	9	7	16	3	n/a	n/a	n/a	n/a
28262.09105	1.2004465	2	161	1	7	8	1	2	7	1	28262.49115	0.4389855
28263.2915	1.2002704	2	162	1	7	8	2	1	7	1	28263.6915	0.5159
28264.49177	1.2005461	2	163	1	7	8	3	2	7	1	28264.89193	0.7174221
28265.69231	1.2003156	2	164	1	7	8	4	2	6	1	28266.09252	0.6162408
28266.89263	1.2004404	2	165	1	7	8	5	2	6	1	28267.29275	0.5161575
28268.09307	1.2003807	2	166	1	7	8	6	2	6	1	28268.49319	0.6159885
28269.29345	1.2004386	2	167	1	7	8	7	1	5	1	28269.69362	0.416399
28270.49389	1.2004634	2	168	1	7	8	8	2	5	0	28270.894	0.4171994
28271.69435	1.2003337	2	169	1	7	8	9	2	6	0	28272.09444	0.5165241
28272.89469	1.2004284	2	170	1	7	8	10	1	7	1	28273.29491	0.4172179
28274.09512	1.2004157	2	171	1	7	8	11	2	7	1	28274.49531	0.4169758
28275.29553	1.2003542	2	172	1	7	8	12	2	7	1	28275.69564	0.51646
28276.49589	1.2004694	2	173	1	7	8	13	2	6	1	28276.89608	0.417214
28277.69635	1.2004125	2	174	1	7	8	14	1	6	1	28278.09647	0.6159241
28278.89677	1.2004849	2	175	1	7	8	15	1	6	1	28279.2969	0.416291
28280.09725	1.2002758	2	176	1	7	8	16	2	5	1	28280.49728	0.316547
28281.29753	1.2004267	2	177	1	7	8	17	2	5	0	28281.6977	0.31633
28282.49795	1.2005377	2	178	1	7	8	18	2	6	1	28282.89816	0.4171563
28283.69849	1.2003264	2	179	1	7	8	19	2	6	1	28284.09851	0.516077
28284.89882	1.2004331	2	180	1	7	8	20	1	6	1	28285.29894	0.5166787
28286.09925	1.2003592	2	181	1	7	8	21	2	5	1	28286.49936	0.4166058
28287.29961	1.2003541	2	182	1	7	8	22	1	5	1	28287.69979	0.5162119
28288.49996	1.2004822	2	183	1	7	8	23	1	5	1	28288.90014	0.7185046
28289.70045	1.2003558	2	184	1	7	8	24	1	4	0	28290.10054	0.4170647
28290.9008	1.2004637	2	185	1	7	8	25	2	5	1	28291.30095	0.5166438
28292.10127	1.2003636	2	186	1	7	8	26	2	5	1	28292.50136	0.5159813
28293.30163	1.2004166	2	187	1	7	8	27	1	5	1	28293.70177	0.5132087
28294.50205	1.2003575	2	188	1	7	8	28	1	4	1	28294.90219	0.7139637
28295.7024	1.2004174	2	189	1	7	8	29	1	4	1	28296.10254	0.6162359
28296.90282	1.2004089	2	190	1	7	8	30	2	4	0	28297.30297	0.6120423
28298.10323	1.2004311	2	191	1	7	8	31	2	5	1	28298.50335	0.4151758
28299.30366	1.2003765	2	192	1	7	8	32	2	5	1	28299.70376	0.5133608
28300.50404	1.2004787	2	193	1	9	9	1	3	n/a	n/a	n/a	n/a
28301.70452	1.2003611	2	194	1	9	9	2	3	n/a	n/a	n/a	n/a
28302.90488	1.2004505	2	195	1	9	9	3	3	n/a	n/a	n/a	n/a
28304.10533	1.200387	2	196	1	9	9	4	3	n/a	n/a	n/a	n/a
28305.30572	1.2004729	2	197	1	9	9	5	3	n/a	n/a	n/a	n/a
28306.50619	1.2003253	2	198	1	9	9	6	3	n/a	n/a	n/a	n/a
28307.70651	1.2004011	2	199	1	9	9	7	3	n/a	n/a	n/a	n/a
28308.90691	1.2004376	2	200	1	9	9	8	3	n/a	n/a	n/a	n/a
28310.10735	1.2003971	2	201	1	9	9	9	3	n/a	n/a	n/a	n/a
28311.30775	1.2004276	2	202	1	9	9	10	3	n/a	n/a	n/a	n/a
28312.50818	1.2003911	2	203	1	9	9	11	3	n/a	n/a	n/a	n/a
28313.70857	1.2004447	2	204	1	9	9	12	3	n/a	n/a	n/a	n/a
28314.90901	1.2004084	2	205	1	9	9	13	3	n/a	n/a	n/a	n/a
28316.10942	1.2003691	2	206	1	9	9	14	3	n/a	n/a	n/a	n/a
28317.30979	1.2004463	2	207	1	9	9	15	3	n/a	n/a	n/a	n/a
28318.51024	1.2004106	2	208	1	9	9	16	3	n/a	n/a	n/a	n/a
