onset	duration	run_number	trial_number	att_task	bar_direction	bar_period	bar_step	stim_noise_ori	stim_stair_val	response_val	probe_time	reaction_time
28668.96769	1.2042808	4	1	1	9	1	1	3	n/a	n/a	n/a	n/a
28670.17197	1.2004384	4	2	1	9	1	2	3	n/a	n/a	n/a	n/a
28671.37241	1.2004048	4	3	1	9	1	3	3	n/a	n/a	n/a	n/a
28672.57281	1.2003632	4	4	1	9	1	4	3	n/a	n/a	n/a	n/a
28673.77318	1.2005052	4	5	1	9	1	5	3	n/a	n/a	n/a	n/a
28674.97368	1.2003937	4	6	1	9	1	6	3	n/a	n/a	n/a	n/a
28676.17408	1.2004157	4	7	1	9	1	7	3	n/a	n/a	n/a	n/a
28677.37449	1.2003229	4	8	1	9	1	8	3	n/a	n/a	n/a	n/a
28678.57481	1.2004207	4	9	1	9	1	9	3	n/a	n/a	n/a	n/a
28679.77524	1.2003986	4	10	1	9	1	10	3	n/a	n/a	n/a	n/a
28680.97563	1.2004265	4	11	1	9	1	11	3	n/a	n/a	n/a	n/a
28682.17606	1.2004264	4	12	1	9	1	12	3	n/a	n/a	n/a	n/a
28683.37649	1.200449	4	13	1	9	1	13	3	n/a	n/a	n/a	n/a
28684.57694	1.2003653	4	14	1	9	1	14	3	n/a	n/a	n/a	n/a
28685.7773	1.2004363	4	15	1	9	1	15	3	n/a	n/a	n/a	n/a
28686.97774	1.2004757	4	16	1	9	1	16	3	n/a	n/a	n/a	n/a
28688.17821	1.2003504	4	17	1	1	2	1	1	6	1	28688.57827	0.5161012
28689.37856	1.2004491	4	18	1	1	2	2	2	5	1	28689.77868	0.6153587
28690.57901	1.2003577	4	19	1	1	2	3	2	5	1	28690.97905	0.5162125
28691.77937	1.200346	4	20	1	1	2	4	1	5	1	28692.1795	0.5165159
28692.97972	1.2004966	4	21	1	1	2	5	2	4	1	28693.37988	0.6163362
28694.18021	1.2003656	4	22	1	1	2	6	1	4	1	28694.58026	0.6161705
28695.38058	1.2003883	4	23	1	1	2	7	2	4	1	28695.78072	0.5183685
28696.58097	1.2004503	4	24	1	1	2	8	2	3	1	28696.9811	0.4200122
28697.78142	1.2003803	4	25	1	1	2	9	2	3	0	28698.18157	0.3163338
28698.9818	1.2004337	4	26	1	1	2	10	2	4	1	28699.38197	0.5161336
28700.18223	1.2003665	4	27	1	1	2	11	1	4	0	28700.58235	0.4166101
28701.3826	1.2004136	4	28	1	1	2	12	1	5	0	28701.78275	0.515201
28702.58301	1.2004616	4	29	1	1	2	13	1	6	1	28702.98315	0.4195165
28703.78347	1.200364	4	30	1	1	2	14	1	6	1	28704.18366	0.4165924
28704.98384	1.2004408	4	31	1	1	2	15	1	6	1	28705.38408	0.4161404
28706.18428	1.2004588	4	32	1	1	2	16	2	5	1	28706.58442	0.5149463
28707.38474	1.2003394	4	33	1	1	2	17	2	5	1	28707.7848	0.4155958
28708.58508	1.2004376	4	34	1	1	2	18	2	5	1	28708.98518	0.4158656
28709.78551	1.2005386	4	35	1	1	2	19	1	4	1	28710.18567	0.6147158
28710.98605	1.2002647	4	36	1	1	2	20	2	4	1	28711.38602	0.4154315
28712.18632	1.2005592	4	37	1	1	2	21	1	4	1	28712.5865	0.6148225
28713.38688	1.2002571	4	38	1	1	2	22	2	3	1	28713.78684	0.3147973
28714.58713	1.2004084	4	39	1	1	2	23	2	3	1	28714.98729	0.4153103
28715.78754	1.2004528	4	40	1	1	2	24	2	3	1	28716.18767	0.5152416
28716.98799	1.2004456	4	41	1	1	2	25	2	2	1	28717.38813	0.5149918
28718.18844	1.2003366	4	42	1	1	2	26	1	2	0	28718.58852	0.5154443
28719.38878	1.2003986	4	43	1	1	2	27	2	3	0	28719.7889	0.4164787
28720.58918	1.2004375	4	44	1	1	2	28	1	4	1	28720.98931	0.415863
28721.78961	1.2005099	4	45	1	1	2	29	1	4	1	28722.18968	0.5147886
28722.99012	1.2003069	4	46	1	1	2	30	1	4	1	28723.39009	0.5146156
28724.19043	1.2003345	4	47	1	1	2	31	1	3	1	28724.59055	0.5143288
28725.39076	1.2004162	4	48	1	1	2	32	1	3	0	28725.79096	0.4136043
28726.59118	1.2005665	4	49	1	9	3	1	3	n/a	n/a	n/a	n/a
28727.79175	1.2002823	4	50	1	9	3	2	3	n/a	n/a	n/a	n/a
28728.99203	1.2004184	4	51	1	9	3	3	3	n/a	n/a	n/a	n/a
28730.19245	1.2003763	4	52	1	9	3	4	3	n/a	n/a	n/a	n/a
28731.39282	1.2004448	4	53	1	9	3	5	3	n/a	n/a	n/a	n/a
28732.59327	1.2004043	4	54	1	9	3	6	3	n/a	n/a	n/a	n/a
28733.79367	1.2004063	4	55	1	9	3	7	3	n/a	n/a	n/a	n/a
28734.99408	1.2004125	4	56	1	9	3	8	3	n/a	n/a	n/a	n/a
28736.19449	1.2004167	4	57	1	9	3	9	3	n/a	n/a	n/a	n/a
28737.39491	1.2003685	4	58	1	9	3	10	3	n/a	n/a	n/a	n/a
28738.59528	1.2004377	4	59	1	9	3	11	3	n/a	n/a	n/a	n/a
28739.79571	1.2004031	4	60	1	9	3	12	3	n/a	n/a	n/a	n/a
28740.99612	1.2004736	4	61	1	9	3	13	3	n/a	n/a	n/a	n/a
28742.19659	1.2003827	4	62	1	9	3	14	3	n/a	n/a	n/a	n/a
28743.39697	1.2004015	4	63	1	9	3	15	3	n/a	n/a	n/a	n/a
28744.59738	1.2004023	4	64	1	9	3	16	3	n/a	n/a	n/a	n/a
28745.79778	1.2003964	4	65	1	3	4	1	2	4	1	28746.19792	0.6140912
28746.99817	1.2004751	4	66	1	3	4	2	2	4	1	28747.39831	0.5150561
28748.19865	1.2003211	4	67	1	3	4	3	2	4	1	28748.59875	0.7169806
28749.39897	1.200458	4	68	1	3	4	4	1	3	1	28749.79914	0.6170407
28750.59943	1.2003899	4	69	1	3	4	5	2	3	n/a	28750.99954	n/a
28751.79982	1.2003899	4	70	1	3	4	6	1	3	1	28752.20001	0.7168264
28753.00021	1.2004082	4	71	1	3	4	7	1	3	1	28753.40049	0.5164602
28754.20062	1.2004604	4	72	1	3	4	8	1	2	1	28754.60079	0.6161903
28755.40108	1.2003652	4	73	1	3	4	9	2	2	1	28755.80115	0.4166742
28756.60144	1.200461	4	74	1	3	4	10	2	2	0	28757.00157	0.4175704
28757.8019	1.2004041	4	75	1	3	4	11	1	3	0	28758.202	0.517067
28759.00231	1.2004587	4	76	1	3	4	12	1	4	1	28759.40249	0.3163717
28760.20277	1.2003364	4	77	1	3	4	13	2	4	0	28760.60285	0.3163796
28761.4031	1.2004098	4	78	1	3	4	14	1	5	1	28761.80325	0.4166038
28762.60351	1.2004186	4	79	1	3	4	15	2	5	0	28763.00368	0.3172465
28763.80393	1.2003614	4	80	1	3	4	16	1	6	1	28764.20408	0.3161266
28765.00429	1.2004964	4	81	1	3	4	17	2	6	1	28765.40452	0.315901
28766.20479	1.2003636	4	82	1	3	4	18	2	6	1	28766.60491	0.4169315
28767.40515	1.2004756	4	83	1	3	4	19	1	5	1	28767.80532	0.4171109
28768.60563	1.2003267	4	84	1	3	4	20	1	5	1	28769.0057	0.5169913
28769.80595	1.2004251	4	85	1	3	4	21	2	5	1	28770.20614	0.4172323
28771.00638	1.2004543	4	86	1	3	4	22	1	4	0	28771.4065	0.3160568
28772.20683	1.2003095	4	87	1	3	4	23	1	5	1	28772.60693	0.4168235
28773.40714	1.2004845	4	88	1	3	4	24	2	5	1	28773.80733	0.5168425
28774.60763	1.2004034	4	89	1	3	4	25	1	5	1	28775.00772	0.5160535
28775.80803	1.2004306	4	90	1	3	4	26	1	4	1	28776.20814	0.5167552
28777.00846	1.2003658	4	91	1	3	4	27	2	4	1	28777.40864	0.4164885
28778.20883	1.2004119	4	92	1	3	4	28	1	4	1	28778.60906	0.5165787
28779.40924	1.2004092	4	93	1	3	4	29	1	3	1	28779.80939	0.6172796
28780.60965	1.2004244	4	94	1	3	4	30	1	3	n/a	28781.00979	n/a
28781.81007	1.2004614	4	95	1	3	4	31	2	3	0	28782.2102	0.3152699
28783.01053	1.2005021	4	96	1	3	4	32	2	4	0	28783.41073	0.3139233
28784.21104	1.2002289	4	97	1	9	5	1	3	n/a	n/a	n/a	n/a
28785.41127	1.2003858	4	98	1	9	5	2	3	n/a	n/a	n/a	n/a
28786.61165	1.2004745	4	99	1	9	5	3	3	n/a	n/a	n/a	n/a
28787.81213	1.2003877	4	100	1	9	5	4	3	n/a	n/a	n/a	n/a
28789.01251	1.2003438	4	101	1	9	5	5	3	n/a	n/a	n/a	n/a
28790.21286	1.2004751	4	102	1	9	5	6	3	n/a	n/a	n/a	n/a
28791.41333	1.2004257	4	103	1	9	5	7	3	n/a	n/a	n/a	n/a
28792.61376	1.2004665	4	104	1	9	5	8	3	n/a	n/a	n/a	n/a
28793.81422	1.2003949	4	105	1	9	5	9	3	n/a	n/a	n/a	n/a
28795.01462	1.2003153	4	106	1	9	5	10	3	n/a	n/a	n/a	n/a
28796.21493	1.2004215	4	107	1	9	5	11	3	n/a	n/a	n/a	n/a
28797.41536	1.2004071	4	108	1	9	5	12	3	n/a	n/a	n/a	n/a
28798.61576	1.2004747	4	109	1	9	5	13	3	n/a	n/a	n/a	n/a
28799.81624	1.2003997	4	110	1	9	5	14	3	n/a	n/a	n/a	n/a
28801.01664	1.2004297	4	111	1	9	5	15	3	n/a	n/a	n/a	n/a
28802.21707	1.2004473	4	112	1	9	5	16	3	n/a	n/a	n/a	n/a
28803.41751	1.2003388	4	113	1	5	6	1	1	5	0	28803.81765	0.612781
28804.61785	1.2003842	4	114	1	5	6	2	2	6	1	28805.01799	0.6136448
28805.81824	1.2004342	4	115	1	5	6	3	1	6	1	28806.21842	0.6149051
28807.01867	1.2004776	4	116	1	5	6	4	1	6	1	28807.41882	0.6147099
28808.21915	1.2003274	4	117	1	5	6	5	2	5	1	28808.61934	0.5141184
28809.41948	1.2004481	4	118	1	5	6	6	2	5	1	28809.81964	0.6152769
28810.61992	1.2004071	4	119	1	5	6	7	2	5	1	28811.02002	0.6151466
28811.82033	1.2003578	4	120	1	5	6	8	1	4	1	28812.22042	0.6149525
28813.02069	1.2005036	4	121	1	5	6	9	2	4	1	28813.42089	0.6147047
28814.22119	1.2003569	4	122	1	5	6	10	2	4	0	28814.62127	0.5147555
28815.42155	1.2003995	4	123	1	5	6	11	1	5	1	28815.82167	0.5145277
28816.62195	1.2004667	4	124	1	5	6	12	1	5	1	28817.02207	0.6151212
28817.82242	1.2003408	4	125	1	5	6	13	2	5	1	28818.22251	0.5156622
28819.02276	1.2004119	4	126	1	5	6	14	1	4	0	28819.42294	0.5149033
28820.22317	1.2004374	4	127	1	5	6	15	1	5	1	28820.62332	0.6150448
28821.42361	1.20038	4	128	1	5	6	16	1	5	1	28821.82368	0.5151248
28822.62399	1.2004757	4	129	1	5	6	17	2	5	1	28823.02412	0.6146742
28823.82446	1.2003598	4	130	1	5	6	18	2	4	1	28824.22457	0.5141067
28825.02482	1.2004267	4	131	1	5	6	19	2	4	0	28825.42501	0.5138944
28826.22525	1.2004137	4	132	1	5	6	20	1	5	1	28826.62536	0.5147266
28827.42566	1.2003788	4	133	1	5	6	21	2	5	1	28827.82582	0.7153564
28828.62604	1.2004573	4	134	1	5	6	22	2	5	1	28829.02633	0.5146908
28829.8265	1.2003535	4	135	1	5	6	23	1	4	1	28830.22664	0.5145935
28831.02685	1.2004022	4	136	1	5	6	24	2	4	0	28831.42702	0.6147376
28832.22725	1.2004652	4	137	1	5	6	25	2	5	0	28832.62745	0.6150058
28833.42772	1.2003602	4	138	1	5	6	26	2	6	1	28833.82784	0.6148066
28834.62808	1.2004494	4	139	1	5	6	27	2	6	1	28835.02833	0.5142613
28835.82853	1.2004219	4	140	1	5	6	28	1	6	1	28836.22862	0.6154504
28837.02895	1.2003871	4	141	1	5	6	29	2	5	1	28837.42907	0.7157663
28838.22934	1.2005139	4	142	1	5	6	30	1	5	1	28838.62946	0.115722
28839.42985	1.2003027	4	143	1	5	6	31	1	5	1	28839.82986	0.0157352
28840.63015	1.2003777	4	144	1	5	6	32	2	4	0	28841.03025	0.1136509
28841.83053	1.2004916	4	145	1	9	7	1	3	n/a	n/a	n/a	n/a
28843.03102	1.2003498	4	146	1	9	7	2	3	n/a	n/a	n/a	n/a
28844.23137	1.2004438	4	147	1	9	7	3	3	n/a	n/a	n/a	n/a
28845.43182	1.2003269	4	148	1	9	7	4	3	n/a	n/a	n/a	n/a
28846.63214	1.2004861	4	149	1	9	7	5	3	n/a	n/a	n/a	n/a
28847.83263	1.2003608	4	150	1	9	7	6	3	n/a	n/a	n/a	n/a
28849.03299	1.2004498	4	151	1	9	7	7	3	n/a	n/a	n/a	n/a
28850.23344	1.200437	4	152	1	9	7	8	3	n/a	n/a	n/a	n/a
28851.43388	1.2003937	4	153	1	9	7	9	3	n/a	n/a	n/a	n/a
28852.63427	1.2003776	4	154	1	9	7	10	3	n/a	n/a	n/a	n/a
28853.83465	1.200392	4	155	1	9	7	11	3	n/a	n/a	n/a	n/a
28855.03504	1.2005775	4	156	1	9	7	12	3	n/a	n/a	n/a	n/a
28856.23562	1.2002827	4	157	1	9	7	13	3	n/a	n/a	n/a	n/a
28857.4359	1.2004191	4	158	1	9	7	14	3	n/a	n/a	n/a	n/a
28858.63632	1.200363	4	159	1	9	7	15	3	n/a	n/a	n/a	n/a
28859.83668	1.200431	4	160	1	9	7	16	3	n/a	n/a	n/a	n/a
28861.03711	1.2004719	4	161	1	7	8	1	1	5	1	28861.43724	0.5147521
28862.23759	1.2003261	4	162	1	7	8	2	1	5	1	28862.63771	0.6150105
28863.43791	1.2004614	4	163	1	7	8	3	1	5	1	28863.83807	0.616412
28864.63837	1.2003944	4	164	1	7	8	4	2	4	1	28865.0385	0.6161542
28865.83877	1.200426	4	165	1	7	8	5	2	4	1	28866.23896	0.6163872
28867.03919	1.2004494	4	166	1	7	8	6	2	4	1	28867.43931	0.5167047
28868.23964	1.2003917	4	167	1	7	8	7	1	3	1	28868.63975	0.6160537
28869.44004	1.2003758	4	168	1	7	8	8	1	3	1	28869.84015	0.5167665
28870.64041	1.2003729	4	169	1	7	8	9	1	3	0	28871.04055	0.4168392
28871.84078	1.2003966	4	170	1	7	8	10	2	4	0	28872.24099	0.4170934
28873.04118	1.2005114	4	171	1	7	8	11	2	5	1	28873.44133	0.4164476
28874.24169	1.2003223	4	172	1	7	8	12	1	5	1	28874.64176	0.4167387
28875.44201	1.2004514	4	173	1	7	8	13	2	5	1	28875.84216	0.4170361
28876.64247	1.2003543	4	174	1	7	8	14	1	4	1	28877.0426	0.415811
28877.84282	1.2004651	4	175	1	7	8	15	2	4	1	28878.24304	0.3157743
28879.04329	1.2003889	4	176	1	7	8	16	2	4	n/a	28879.44342	n/a
28880.24367	1.2006068	4	177	1	7	8	17	2	4	1	28880.64392	0.5159286
28881.44428	1.2002046	4	178	1	7	8	18	2	3	1	28881.84423	0.5162975
28882.64449	1.2004436	4	179	1	7	8	19	2	3	0	28883.04462	0.3160186
28883.84493	1.2004017	4	180	1	7	8	20	2	4	1	28884.24507	0.4171379
28885.04533	1.2003652	4	181	1	7	8	21	2	4	1	28885.44547	0.6162793
28886.2457	1.2004578	4	182	1	7	8	22	2	4	1	28886.64586	0.5165247
28887.44615	1.2004235	4	183	1	7	8	23	1	3	0	28887.84624	0.5169155
28888.64658	1.2003743	4	184	1	7	8	24	1	4	1	28889.04673	0.6156718
28889.84695	1.2004374	4	185	1	7	8	25	2	4	1	28890.24708	0.6164972
28891.04739	1.200349	4	186	1	7	8	26	1	4	1	28891.44757	0.4163709
28892.24774	1.2004455	4	187	1	7	8	27	1	3	1	28892.64791	0.4162523
28893.44818	1.2003854	4	188	1	7	8	28	1	3	0	28893.84832	0.4165838
28894.64857	1.2004139	4	189	1	7	8	29	2	4	0	28895.04875	0.3162668
28895.84898	1.200435	4	190	1	7	8	30	1	5	1	28896.24912	0.5171173
28897.04942	1.2004035	4	191	1	7	8	31	1	5	1	28897.44955	0.4154635
28898.24982	1.2003908	4	192	1	7	8	32	2	5	0	28898.64995	0.4152693
28899.45021	1.2004346	4	193	1	9	9	1	3	n/a	n/a	n/a	n/a
28900.65065	1.2004298	4	194	1	9	9	2	3	n/a	n/a	n/a	n/a
28901.85108	1.2004082	4	195	1	9	9	3	3	n/a	n/a	n/a	n/a
28903.05148	1.2003906	4	196	1	9	9	4	3	n/a	n/a	n/a	n/a
28904.25188	1.2004331	4	197	1	9	9	5	3	n/a	n/a	n/a	n/a
28905.45231	1.2004281	4	198	1	9	9	6	3	n/a	n/a	n/a	n/a
28906.65274	1.2004963	4	199	1	9	9	7	3	n/a	n/a	n/a	n/a
28907.85323	1.2002688	4	200	1	9	9	8	3	n/a	n/a	n/a	n/a
28909.0535	1.2003903	4	201	1	9	9	9	3	n/a	n/a	n/a	n/a
28910.25389	1.2004487	4	202	1	9	9	10	3	n/a	n/a	n/a	n/a
28911.45434	1.2004223	4	203	1	9	9	11	3	n/a	n/a	n/a	n/a
28912.65476	1.2003919	4	204	1	9	9	12	3	n/a	n/a	n/a	n/a
28913.85515	1.2003759	4	205	1	9	9	13	3	n/a	n/a	n/a	n/a
28915.05553	1.2004385	4	206	1	9	9	14	3	n/a	n/a	n/a	n/a
28916.25597	1.2004172	4	207	1	9	9	15	3	n/a	n/a	n/a	n/a
28917.45639	1.2004596	4	208	1	9	9	16	3	n/a	n/a	n/a	n/a
