onset	duration	run_number	trial_number	bar_direction	bar_period	bar_step	stim_noise_ori	trial_offset	stim_stair_val	response_val	probe_time	reaction_time
4792.450209	1.1979092	1	1	9	1	1	3	4793.648119	n/a	n/a	n/a	n/a
4793.648119	1.1998405	1	2	9	1	2	3	4794.847959	n/a	n/a	n/a	n/a
4794.847959	1.1998675	1	3	9	1	3	3	4796.047827	n/a	n/a	n/a	n/a
4796.047827	1.199769	1	4	9	1	4	3	4797.247595	n/a	n/a	n/a	n/a
4797.247595	1.199882758	1	5	9	1	5	3	4798.447478	n/a	n/a	n/a	n/a
4798.447478	1.199833721	1	6	9	1	6	3	4799.647312	n/a	n/a	n/a	n/a
4799.647312	1.199782621	1	7	9	1	7	3	4800.847095	n/a	n/a	n/a	n/a
4800.847095	1.1997164	1	8	9	1	8	3	4802.046811	n/a	n/a	n/a	n/a
4802.046811	1.199993279	1	9	9	1	9	3	4803.246804	n/a	n/a	n/a	n/a
4803.246804	1.199798021	1	10	9	1	10	3	4804.446602	n/a	n/a	n/a	n/a
4804.446602	1.1998256	1	11	9	1	11	3	4805.646428	n/a	n/a	n/a	n/a
4805.646428	1.1998264	1	12	9	1	12	3	4806.846254	n/a	n/a	n/a	n/a
4806.846254	1.19983	1	13	9	1	13	3	4808.046084	n/a	n/a	n/a	n/a
4808.046084	1.199884658	1	14	9	1	14	3	4809.245969	n/a	n/a	n/a	n/a
4809.245969	1.199783542	1	15	9	1	15	3	4810.445752	n/a	n/a	n/a	n/a
4810.445752	1.1996922	1	16	9	1	16	3	4811.645445	n/a	n/a	n/a	n/a
4811.645445	1.200024191	1	17	1	2	1	2	4812.845469	9	n/a	4812.045576	n/a
4812.845469	1.199747609	1	18	1	2	2	1	4814.045216	9	n/a	4813.245414	n/a
4814.045216	1.199911637	1	19	1	2	3	2	4815.245128	9	n/a	4814.445244	n/a
4815.245128	1.199788963	1	20	1	2	4	2	4816.444917	9	n/a	4815.645086	n/a
4816.444917	1.1998765	1	21	1	2	5	1	4817.644794	9	n/a	4816.844846	n/a
4817.644794	1.199835979	1	22	1	2	6	2	4818.84463	9	n/a	4818.044748	n/a
4818.84463	1.199741521	1	23	1	2	7	2	4820.044371	9	n/a	4819.244524	n/a
4820.044371	1.1997035	1	24	1	2	8	1	4821.244075	9	n/a	4820.444405	n/a
4821.244075	1.200046579	1	25	1	2	9	2	4822.444121	9	n/a	4821.644189	n/a
4822.444121	1.199835779	1	26	1	2	10	1	4823.643957	9	0	4822.844074	n/a
4823.643957	1.199837042	1	27	1	2	11	1	4824.843794	10	0	4824.043852	0.1092608
4824.843794	1.1997919	1	28	1	2	12	1	4826.043586	11	0	4825.243689	0.1111646
4826.043586	1.1998135	1	29	1	2	13	1	4827.243399	12	n/a	4826.443508	n/a
4827.243399	1.199887458	1	30	1	2	14	1	4828.443287	12	1	4827.64319	0.109279
4828.443287	1.199776542	1	31	1	2	15	2	4829.643063	12	0	4828.843152	0.4113691
4829.643063	1.199816	1	32	1	2	16	1	4830.842879	13	n/a	4830.04307	n/a
4830.842879	1.1998617	1	33	1	2	17	2	4832.042741	13	n/a	4831.242896	n/a
4832.042741	1.1998207	1	34	1	2	18	1	4833.242562	13	1	4832.442731	0.3107322
4833.242562	1.19984	1	35	1	2	19	2	4834.442402	13	0	4833.642524	0.6104296
4834.442402	1.199878058	1	36	1	2	20	1	4835.64228	14	n/a	4834.842344	n/a
4835.64228	1.199770242	1	37	1	2	21	1	4836.84205	14	0	4836.042164	0.5093609
4836.84205	1.199897437	1	38	1	2	22	2	4838.041948	15	1	4837.241917	0.5116321
4838.041948	1.199834942	1	39	1	2	23	2	4839.241782	15	1	4838.441828	0.6084602
4839.241782	1.199765521	1	40	1	2	24	2	4840.441548	15	1	4839.641663	0.7080685
4840.441548	1.1997527	1	41	1	2	25	1	4841.641301	14	0	4840.841492	0.6082626
4841.641301	1.1999699	1	42	1	2	26	2	4842.841271	15	1	4842.041321	0.7060207
4842.841271	1.1997787	1	43	1	2	27	1	4844.041049	15	0	4843.241163	0.7072054
4844.041049	1.1998826	1	44	1	2	28	1	4845.240932	15	n/a	4844.441039	n/a
4845.240932	1.1998126	1	45	1	2	29	1	4846.440744	15	1	4845.640858	n/a
4846.440744	1.199853158	1	46	1	2	30	2	4847.640598	15	0	4846.840706	0.4074509045
4847.640598	1.1998321	1	47	1	2	31	1	4848.84043	15	n/a	4848.040544	n/a
4848.84043	1.199830242	1	48	1	2	32	2	4850.04026	15	0	4849.240363	0.3067749
4850.04026	1.199794	1	49	9	3	1	3	4851.240054	n/a	n/a	n/a	n/a
4851.240054	1.1998243	1	50	9	3	2	3	4852.439878	n/a	n/a	n/a	n/a
4852.439878	1.199880358	1	51	9	3	3	3	4853.639759	n/a	n/a	n/a	n/a
4853.639759	1.199838821	1	52	9	3	4	3	4854.839597	n/a	n/a	n/a	n/a
4854.839597	1.199769321	1	53	9	3	5	3	4856.039367	n/a	n/a	n/a	n/a
4856.039367	1.199905116	1	54	9	3	6	3	4857.239272	n/a	n/a	n/a	n/a
4857.239272	1.199758884	1	55	9	3	7	3	4858.439031	n/a	n/a	n/a	n/a
4858.439031	1.1998419	1	56	9	3	8	3	4859.638873	n/a	n/a	n/a	n/a
4859.638873	1.199885024	1	57	9	3	9	3	4860.838758	n/a	n/a	n/a	n/a
4860.838758	1.199782076	1	58	9	3	10	3	4862.03854	n/a	n/a	n/a	n/a
4862.03854	1.1998412	1	59	9	3	11	3	4863.238381	n/a	n/a	n/a	n/a
4863.238381	1.1997587	1	60	9	3	12	3	4864.43814	n/a	n/a	n/a	n/a
4864.43814	1.1998686	1	61	9	3	13	3	4865.638008	n/a	n/a	n/a	n/a
4865.638008	1.1998743	1	62	9	3	14	3	4866.837883	n/a	n/a	n/a	n/a
4866.837883	1.199865137	1	63	9	3	15	3	4868.037748	n/a	n/a	n/a	n/a
4868.037748	1.199629063	1	64	9	3	16	3	4869.237377	n/a	n/a	n/a	n/a
4869.237377	1.1999948	1	65	3	4	1	1	4870.437372	15	n/a	4869.637323	n/a
4870.437372	1.199868179	1	66	3	4	2	2	4871.63724	15	n/a	4870.837367	n/a
4871.63724	1.199796121	1	67	3	4	3	1	4872.837036	15	n/a	4872.03719	n/a
4872.837036	1.199869079	1	68	3	4	4	1	4874.036905	15	n/a	4873.236977	n/a
4874.036905	1.199835979	1	69	3	4	5	1	4875.236741	15	n/a	4874.436861	n/a
4875.236741	1.199672142	1	70	3	4	6	2	4876.436413	15	n/a	4875.636646	n/a
4876.436413	1.199988337	1	71	3	4	7	2	4877.636401	15	n/a	4876.836474	n/a
4877.636401	1.199790663	1	72	3	4	8	2	4878.836192	15	n/a	4878.036302	n/a
4878.836192	1.1998493	1	73	3	4	9	2	4880.036041	15	n/a	4879.236185	n/a
4880.036041	1.199819	1	74	3	4	10	1	4881.23586	15	n/a	4880.436014	n/a
4881.23586	1.199870737	1	75	3	4	11	2	4882.435731	15	n/a	4881.635802	n/a
4882.435731	1.199788663	1	76	3	4	12	2	4883.63552	15	n/a	4882.835633	n/a
4883.63552	1.1998328	1	77	3	4	13	1	4884.835353	15	n/a	4884.035357	n/a
4884.835353	1.1998507	1	78	3	4	14	1	4886.035203	15	n/a	4885.235343	n/a
4886.035203	1.199724	1	79	3	4	15	1	4887.234927	15	n/a	4886.435038	n/a
4887.234927	1.1999634	1	80	3	4	16	2	4888.434891	15	n/a	4887.634928	n/a
4888.434891	1.1997831	1	81	3	4	17	1	4889.634674	15	n/a	4888.83478	n/a
4889.634674	1.1998306	1	82	3	4	18	1	4890.834504	15	n/a	4890.034615	n/a
4890.834504	1.1998336	1	83	3	4	19	2	4892.034338	15	n/a	4891.234507	n/a
4892.034338	1.1998669	1	84	3	4	20	2	4893.234205	15	0	4892.43428	0.3098356
4893.234205	1.1997643	1	85	3	4	21	2	4894.433969	15	0	4893.634154	0.4180127
4894.433969	1.199852	1	86	3	4	22	1	4895.633821	15	1	4894.833783	0.3179573
4895.633821	1.1998008	1	87	3	4	23	1	4896.833622	15	1	4896.033825	0.4168668
4896.833622	1.1998837	1	88	3	4	24	2	4898.033506	15	0	4897.233658	0.4161814
4898.033506	1.199877058	1	89	3	4	25	1	4899.233383	15	1	4898.433456	0.4209772
4899.233383	1.199789542	1	90	3	4	26	1	4900.433172	15	1	4899.633331	0.2303098418
4900.433172	1.1998363	1	91	3	4	27	2	4901.633009	15	0	4900.833109	0.2290735
4901.633009	1.199875558	1	92	3	4	28	1	4902.832884	15	n/a	4902.032949	n/a
4902.832884	1.199778542	1	93	3	4	29	1	4904.032663	15	n/a	4903.232617	n/a
4904.032663	1.1998375	1	94	3	4	30	1	4905.2325	15	n/a	4904.432655	n/a
4905.2325	1.1997656	1	95	3	4	31	1	4906.432266	15	n/a	4905.632439	n/a
4906.432266	1.199950875	1	96	3	4	32	2	4907.632217	15	n/a	4906.83213	n/a
4907.632217	1.199832205	1	97	9	5	1	3	4908.832049	n/a	n/a	n/a	n/a
4908.832049	1.199634021	1	98	9	5	2	3	4910.031683	n/a	n/a	n/a	n/a
4910.031683	1.1999863	1	99	9	5	3	3	4911.231669	n/a	n/a	n/a	n/a
4911.231669	1.199878658	1	100	9	5	4	3	4912.431548	n/a	n/a	n/a	n/a
4912.431548	1.199761842	1	101	9	5	5	3	4913.63131	n/a	n/a	n/a	n/a
4913.63131	1.199893858	1	102	9	5	6	3	4914.831204	n/a	n/a	n/a	n/a
4914.831204	1.199788142	1	103	9	5	7	3	4916.030992	n/a	n/a	n/a	n/a
4916.030992	1.199883179	1	104	9	5	8	3	4917.230875	n/a	n/a	n/a	n/a
4917.230875	1.199827979	1	105	9	5	9	3	4918.430703	n/a	n/a	n/a	n/a
4918.430703	1.199783542	1	106	9	5	10	3	4919.630486	n/a	n/a	n/a	n/a
4919.630486	1.1998356	1	107	9	5	11	3	4920.830322	n/a	n/a	n/a	n/a
4920.830322	1.199877979	1	108	9	5	12	3	4922.0302	n/a	n/a	n/a	n/a
4922.0302	1.199787321	1	109	9	5	13	3	4923.229987	n/a	n/a	n/a	n/a
4923.229987	1.1996712	1	110	9	5	14	3	4924.429659	n/a	n/a	n/a	n/a
4924.429659	1.1999631	1	111	9	5	15	3	4925.629622	n/a	n/a	n/a	n/a
4925.629622	1.1998634	1	112	9	5	16	3	4926.829485	n/a	n/a	n/a	n/a
4926.829485	1.1998309	1	113	5	6	1	1	4928.029316	15	n/a	4927.229425	n/a
4928.029316	1.1998261	1	114	5	6	2	2	4929.229142	15	n/a	4928.429311	n/a
4929.229142	1.1998451	1	115	5	6	3	2	4930.428987	15	n/a	4929.629142	n/a
4930.428987	1.199874379	1	116	5	6	4	2	4931.628861	15	n/a	4930.828781	n/a
4931.628861	1.1998294	1	117	5	6	5	1	4932.828691	15	n/a	4932.028768	n/a
4932.828691	1.199756721	1	118	5	6	6	2	4934.028448	15	n/a	4933.228635	n/a
4934.028448	1.199904637	1	119	5	6	7	2	4935.228352	15	n/a	4934.428442	n/a
4935.228352	1.199812263	1	120	5	6	8	2	4936.428165	15	1	4935.628257	n/a
4936.428165	1.1998319	1	121	5	6	9	2	4937.627996	15	n/a	4936.828098	n/a
4937.627996	1.1998532	1	122	5	6	10	1	4938.82785	15	n/a	4938.02796	n/a
4938.82785	1.1998094	1	123	5	6	11	2	4940.027659	15	1	4939.227787	n/a
4940.027659	1.1997956	1	124	5	6	12	1	4941.227455	15	n/a	4940.427436	n/a
4941.227455	1.1998709	1	125	5	6	13	2	4942.427325	15	n/a	4941.627443	n/a
4942.427325	1.1996252	1	126	5	6	14	1	4943.626951	15	0	4942.827196	0.0181763
4943.626951	1.200072016	1	127	5	6	15	2	4944.827023	15	1	4944.027029	n/a
4944.827023	1.19983	1	128	5	6	16	1	4946.026853	15	0	4945.226958	0.0173573
4946.026853	1.199767684	1	129	5	6	17	2	4947.22662	15	1	4946.426735	0.7169661
4947.22662	1.199886679	1	130	5	6	18	2	4948.426507	15	n/a	4947.626564	n/a
4948.426507	1.199789821	1	131	5	6	19	1	4949.626297	15	0	4948.826433	n/a
4949.626297	1.1998332	1	132	5	6	20	2	4950.82613	15	0	4950.026233	0.6183206
4950.82613	1.1998426	1	133	5	6	21	2	4952.025973	15	0	4951.226122	0.4179977
4952.025973	1.1996873	1	134	5	6	22	2	4953.22566	15	n/a	4952.425734	n/a
4953.22566	1.200010137	1	135	5	6	23	2	4954.42567	15	n/a	4953.625734	n/a
4954.42567	1.199789263	1	136	5	6	24	2	4955.625459	15	n/a	4954.825569	n/a
4955.625459	1.199876958	1	137	5	6	25	2	4956.825336	15	n/a	4956.025446	n/a
4956.825336	1.199778442	1	138	5	6	26	2	4958.025115	15	n/a	4957.225284	n/a
4958.025115	1.1996768	1	139	5	6	27	2	4959.224792	15	n/a	4958.425067	n/a
4959.224792	1.1999995	1	140	5	6	28	2	4960.424791	15	n/a	4959.624951	n/a
4960.424791	1.199877158	1	141	5	6	29	2	4961.624668	15	n/a	4960.824708	n/a
4961.624668	1.199720642	1	142	5	6	30	2	4962.824389	15	n/a	4962.024564	n/a
4962.824389	1.1998932	1	143	5	6	31	1	4964.024282	15	0	4963.224444	n/a
4964.024282	1.1998327	1	144	5	6	32	1	4965.224115	15	0	4964.424278	0.2201565418
4965.224115	1.1998359	1	145	9	7	1	3	4966.423951	n/a	n/a	n/a	n/a
4966.423951	1.199899858	1	146	9	7	2	3	4967.623851	n/a	n/a	n/a	n/a
4967.623851	1.1998118	1	147	9	7	3	3	4968.823662	n/a	n/a	n/a	n/a
4968.823662	1.199837242	1	148	9	7	4	3	4970.0235	n/a	n/a	n/a	n/a
4970.0235	1.1997804	1	149	9	7	5	3	4971.22328	n/a	n/a	n/a	n/a
4971.22328	1.1996431	1	150	9	7	6	3	4972.422923	n/a	n/a	n/a	n/a
4972.422923	1.2000901	1	151	9	7	7	3	4973.623013	n/a	n/a	n/a	n/a
4973.623013	1.1997774	1	152	9	7	8	3	4974.822791	n/a	n/a	n/a	n/a
4974.822791	1.199865458	1	153	9	7	9	3	4976.022656	n/a	n/a	n/a	n/a
4976.022656	1.199785342	1	154	9	7	10	3	4977.222441	n/a	n/a	n/a	n/a
4977.222441	1.1998378	1	155	9	7	11	3	4978.422279	n/a	n/a	n/a	n/a
4978.422279	1.199879458	1	156	9	7	12	3	4979.622159	n/a	n/a	n/a	n/a
4979.622159	1.199781342	1	157	9	7	13	3	4980.82194	n/a	n/a	n/a	n/a
4980.82194	1.199881658	1	158	9	7	14	3	4982.021822	n/a	n/a	n/a	n/a
4982.021822	1.199778442	1	159	9	7	15	3	4983.2216	n/a	n/a	n/a	n/a
4983.2216	1.1998263	1	160	9	7	16	3	4984.421426	n/a	n/a	n/a	n/a
4984.421426	1.199896937	1	161	7	8	1	2	4985.621323	15	n/a	4984.821437	n/a
4985.621323	1.199823863	1	162	7	8	2	1	4986.821147	15	n/a	4986.021253	n/a
4986.821147	1.1998299	1	163	7	8	3	2	4988.020977	15	n/a	4987.22085	n/a
4988.020977	1.1997839	1	164	7	8	4	1	4989.220761	15	n/a	4988.420882	n/a
4989.220761	1.1996679	1	165	7	8	5	1	4990.420429	15	0	4989.620767	0.6122402255
4990.420429	1.2000469	1	166	7	8	6	1	4991.620476	15	n/a	4990.820585	n/a
4991.620476	1.1998332	1	167	7	8	7	2	4992.820309	15	1	4992.020395	0.4129842
4992.820309	1.1997782	1	168	7	8	8	2	4994.020087	15	n/a	4993.220234	n/a
4994.020087	1.1998875	1	169	7	8	9	1	4995.219975	15	n/a	4994.420027	n/a
4995.219975	1.1998398	1	170	7	8	10	2	4996.419815	15	n/a	4995.619885	n/a
4996.419815	1.1998252	1	171	7	8	11	1	4997.61964	15	n/a	4996.819748	n/a
4997.61964	1.1997928	1	172	7	8	12	2	4998.819433	15	n/a	4998.019477	n/a
4998.819433	1.1996688	1	173	7	8	13	1	5000.019101	15	n/a	4999.219422	n/a
5000.019101	1.200042079	1	174	7	8	14	1	5001.219143	15	n/a	5000.419202	n/a
5001.219143	1.199815391	1	175	7	8	15	1	5002.418959	15	n/a	5001.619034	n/a
5002.418959	1.199842088	1	176	7	8	16	2	5003.618801	15	n/a	5002.818917	n/a
5003.618801	1.199788242	1	177	7	8	17	2	5004.818589	15	n/a	5004.01857	n/a
5004.818589	1.1998282	1	178	7	8	18	1	5006.018417	15	n/a	5005.218556	n/a
5006.018417	1.199885358	1	179	7	8	19	1	5007.218303	15	n/a	5006.418363	n/a
5007.218303	1.199786642	1	180	7	8	20	1	5008.418089	15	n/a	5007.618248	n/a
5008.418089	1.1996769	1	181	7	8	21	1	5009.617766	15	n/a	5008.818082	n/a
5009.617766	1.1999912	1	182	7	8	22	1	5010.817757	15	n/a	5010.017864	n/a
5010.817757	1.199871337	1	183	7	8	23	1	5012.017629	15	n/a	5011.217748	n/a
5012.017629	1.199793763	1	184	7	8	24	2	5013.217422	15	n/a	5012.417381	n/a
5013.217422	1.1998243	1	185	7	8	25	2	5014.417247	15	n/a	5013.617367	n/a
5014.417247	1.1998345	1	186	7	8	26	2	5015.617081	15	n/a	5014.817175	n/a
5015.617081	1.199882158	1	187	7	8	27	1	5016.816963	15	n/a	5016.016874	n/a
5016.816963	1.199785742	1	188	7	8	28	2	5018.016749	15	n/a	5017.216911	n/a
5018.016749	1.199881179	1	189	7	8	29	1	5019.21663	15	n/a	5018.416745	n/a
5019.21663	1.199850558	1	190	7	8	30	1	5020.416481	15	n/a	5019.616577	n/a
5020.416481	1.199770363	1	191	7	8	31	1	5021.616251	15	n/a	5020.816223	n/a
5021.616251	1.1998482	1	192	7	8	32	1	5022.816099	15	n/a	5022.016191	n/a
5022.816099	1.1997973	1	193	9	9	1	3	5024.015897	n/a	n/a	n/a	n/a
5024.015897	1.1998888	1	194	9	9	2	3	5025.215786	n/a	n/a	n/a	n/a
5025.215786	1.1997924	1	195	9	9	3	3	5026.415578	n/a	n/a	n/a	n/a
5026.415578	1.1998323	1	196	9	9	4	3	5027.61541	n/a	n/a	n/a	n/a
5027.61541	1.1997657	1	197	9	9	5	3	5028.815176	n/a	n/a	n/a	n/a
5028.815176	1.199949612	1	198	9	9	6	3	5030.015126	n/a	n/a	n/a	n/a
5030.015126	1.199844242	1	199	9	9	7	3	5031.21497	n/a	n/a	n/a	n/a
5031.21497	1.199615146	1	200	9	9	8	3	5032.414585	n/a	n/a	n/a	n/a
5032.414585	1.1999899	1	201	9	9	9	3	5033.614575	n/a	n/a	n/a	n/a
5033.614575	1.199877858	1	202	9	9	10	3	5034.814453	n/a	n/a	n/a	n/a
5034.814453	1.1998328	1	203	9	9	11	3	5036.014286	n/a	n/a	n/a	n/a
5036.014286	1.199832142	1	204	9	9	12	3	5037.214118	n/a	n/a	n/a	n/a
5037.214118	1.1996736	1	205	9	9	13	3	5038.413791	n/a	n/a	n/a	n/a
5038.413791	1.199983379	1	206	9	9	14	3	5039.613775	n/a	n/a	n/a	n/a
5039.613775	1.199774821	1	207	9	9	15	3	5040.813549	n/a	n/a	n/a	n/a
5040.813549	1.1998964	1	208	9	9	16	3	5042.013446	n/a	n/a	n/a	n/a
