onset	duration	run_number	trial_number	att_task	bar_direction	bar_period	bar_step	stim_noise_ori	stim_stair_val	response_val	probe_time	reaction_time
3688.581682	1.1982451	2	1	1	9	1	1	3	n/a	n/a	n/a	n/a
3689.779927	1.198820373	2	2	1	9	1	2	3	n/a	n/a	n/a	n/a
3690.978748	1.1987945	2	3	1	9	1	3	3	n/a	n/a	n/a	n/a
3692.177542	1.1987949	2	4	1	9	1	4	3	n/a	n/a	n/a	n/a
3693.376337	1.198692027	2	5	1	9	1	5	3	n/a	n/a	n/a	n/a
3694.575029	1.198913884	2	6	1	9	1	6	3	n/a	n/a	n/a	n/a
3695.773943	1.207119325	2	7	1	9	1	7	3	n/a	n/a	n/a	n/a
3696.981062	1.198799084	2	8	1	9	1	8	3	n/a	n/a	n/a	n/a
3698.179861	1.198791736	2	9	1	9	1	9	3	n/a	n/a	n/a	n/a
3699.378653	1.198797291	2	10	1	9	1	10	3	n/a	n/a	n/a	n/a
3700.57745	1.1987979	2	11	1	9	1	11	3	n/a	n/a	n/a	n/a
3701.776248	1.198795889	2	12	1	9	1	12	3	n/a	n/a	n/a	n/a
3702.975044	1.198801016	2	13	1	9	1	13	3	n/a	n/a	n/a	n/a
3704.173845	1.198787996	2	14	1	9	1	14	3	n/a	n/a	n/a	n/a
3705.372633	1.198800952	2	15	1	9	1	15	3	n/a	n/a	n/a	n/a
3706.571434	1.19880022	2	16	1	9	1	16	3	n/a	n/a	n/a	n/a
3707.770234	1.198761707	2	17	1	1	2	1	2	6	1	3708.169833	0.7063675229
3708.968996	1.2570558	2	18	1	1	2	2	2	6	0	3709.368623	0.2431217796
3710.226052	1.273774609	2	19	1	1	2	3	1	7	n/a	3710.625705	n/a
3711.499827	1.198792859	2	20	1	1	2	4	2	7	1	3711.899422	0.6084247478
3712.698619	1.198792104	2	21	1	1	2	5	1	7	1	3713.098211	0.6071569433
3713.897411	1.198799184	2	22	1	1	2	6	1	7	1	3714.297007	0.5070725751
3715.096211	1.198758643	2	23	1	1	2	7	2	6	1	3715.495816	0.4075113433
3716.294969	1.198842057	2	24	1	1	2	8	1	6	1	3716.694643	0.5077625
3717.493811	1.198790632	2	25	1	1	2	9	1	6	n/a	3717.893402	n/a
3718.692602	1.198793	2	26	1	1	2	10	1	6	1	3719.092198	0.7095480478
3719.891395	1.198798964	2	27	1	1	2	11	1	5	1	3720.290996	0.6266334274
3721.090194	1.198795636	2	28	1	1	2	12	1	5	1	3721.489797	0.7128571
3722.28899	1.198769911	2	29	1	1	2	13	1	5	0	3722.688567	0.6140553
3723.487759	1.198825429	2	30	1	1	2	14	2	6	1	3723.887334	0.6157959
3724.686585	1.198795891	2	31	1	1	2	15	2	6	1	3725.086063	0.5345168
3725.885381	1.198795748	2	32	1	1	2	16	2	6	1	3726.284898	0.5329384
3727.084177	1.198800304	2	33	1	1	2	17	2	5	0	3727.483737	0.7137172
3728.282977	1.198679427	2	34	1	1	2	18	1	6	n/a	3728.68248	n/a
3729.481656	1.198911868	2	35	1	1	2	19	2	6	n/a	3729.88136	n/a
3730.680568	1.198798641	2	36	1	1	2	20	1	6	1	3731.080082	0.2477257
3731.879367	1.198764191	2	37	1	1	2	21	1	6	1	3732.27888	0.7134849
3733.078131	1.198825557	2	38	1	1	2	22	1	6	n/a	3733.477755	n/a
3734.276957	1.198796243	2	39	1	1	2	23	1	6	n/a	3734.676567	n/a
3735.475753	1.198808773	2	40	1	1	2	24	1	6	n/a	3735.875267	n/a
3736.674562	1.2154356	2	41	1	1	2	25	1	6	0	3737.082482	0.2572058637
3737.889997	1.198796957	2	42	1	1	2	26	2	7	1	3738.28956	0.4304492
3739.088794	1.198811971	2	43	1	1	2	27	1	7	1	3739.488316	0.7135226
3740.287606	1.198791445	2	44	1	1	2	28	1	7	1	3740.687185	0.7131847
3741.486398	1.198778255	2	45	1	1	2	29	1	6	1	3741.886	0.6135934478
3742.685176	1.198813489	2	46	1	1	2	30	2	6	n/a	3743.084744	n/a
3743.883989	1.198789284	2	47	1	1	2	31	1	6	n/a	3744.283482	n/a
3745.082779	1.198761827	2	48	1	1	2	32	1	6	n/a	3745.482202	n/a
3746.28154	1.198839041	2	49	1	9	3	1	3	n/a	n/a	n/a	n/a
3747.480379	1.198781659	2	50	1	9	3	2	3	n/a	n/a	n/a	n/a
3748.679161	1.198810204	2	51	1	9	3	3	3	n/a	n/a	n/a	n/a
3749.877971	1.198791668	2	52	1	9	3	4	3	n/a	n/a	n/a	n/a
3751.076763	1.1987958	2	53	1	9	3	5	3	n/a	n/a	n/a	n/a
3752.275559	1.1988062	2	54	1	9	3	6	3	n/a	n/a	n/a	n/a
3753.474365	1.198793896	2	55	1	9	3	7	3	n/a	n/a	n/a	n/a
3754.673159	1.198799473	2	56	1	9	3	8	3	n/a	n/a	n/a	n/a
3755.871958	1.19879008	2	57	1	9	3	9	3	n/a	n/a	n/a	n/a
3757.070748	1.198801568	2	58	1	9	3	10	3	n/a	n/a	n/a	n/a
3758.26955	1.198652511	2	59	1	9	3	11	3	n/a	n/a	n/a	n/a
3759.468203	1.198943229	2	60	1	9	3	12	3	n/a	n/a	n/a	n/a
3760.667146	1.198793775	2	61	1	9	3	13	3	n/a	n/a	n/a	n/a
3761.86594	1.198798332	2	62	1	9	3	14	3	n/a	n/a	n/a	n/a
3763.064738	1.198795836	2	63	1	9	3	15	3	n/a	n/a	n/a	n/a
3764.263534	1.198742127	2	64	1	9	3	16	3	n/a	n/a	n/a	n/a
3765.462276	1.198855613	2	65	1	3	4	1	2	6	1	3765.861924	0.7131056796
3766.661131	1.19879158	2	66	1	3	4	2	2	6	1	3767.06072	0.5123411433
3767.859923	1.19879248	2	67	1	3	4	3	2	5	0	3768.259524	0.5128189955
3769.058715	1.1988002	2	68	1	3	4	4	2	6	1	3769.458287	0.4266092
3770.257516	1.198743227	2	69	1	3	4	5	1	6	1	3770.657117	0.6310376478
3771.456259	1.1988471	2	70	1	3	4	6	1	6	0	3771.855907	0.414893807
3772.655106	1.198799804	2	71	1	3	4	7	2	7	1	3773.054711	0.4093907274
3773.853906	1.198799068	2	72	1	3	4	8	1	7	0	3774.253503	0.5140369274
3775.052705	1.198793848	2	73	1	3	4	9	2	8	1	3775.452254	0.3327068
3776.251499	1.19879652	2	74	1	3	4	10	2	8	0	3776.651107	0.5146157159
3777.450295	1.198732659	2	75	1	3	4	11	1	9	1	3777.849946	0.514026
3778.649028	1.198868309	2	76	1	3	4	12	2	9	1	3779.048694	0.4101081796
3779.847896	1.19878968	2	77	1	3	4	13	2	9	1	3780.247489	0.5143568274
3781.046686	1.198800984	2	78	1	3	4	14	1	8	1	3781.446289	0.4158575955
3782.245487	1.198627627	2	79	1	3	4	15	2	8	1	3782.645039	0.5147093
3783.444115	1.198970441	2	80	1	3	4	16	2	8	1	3783.843883	0.5142212318
3784.643085	1.198793327	2	81	1	3	4	17	2	7	1	3785.04268	0.6311504637
3785.841878	1.198797168	2	82	1	3	4	18	1	7	1	3786.241475	0.4312372274
3787.040675	1.198789836	2	83	1	3	4	19	2	7	1	3787.440272	0.4308430274
3788.239465	1.198750627	2	84	1	3	4	20	2	6	1	3788.639065	0.6146479
3789.438216	1.1988139	2	85	1	3	4	21	2	6	1	3789.837875	0.5145311114
3790.63703	1.198835689	2	86	1	3	4	22	1	6	1	3791.036665	0.5090770637
3791.835865	1.282045332	2	87	1	3	4	23	1	5	1	3792.235454	0.5970597433
3793.117911	1.198795148	2	88	1	3	4	24	1	5	0	3793.517502	0.6150863274
3794.316706	1.198795852	2	89	1	3	4	25	1	6	1	3794.716296	0.4303449
3795.515502	1.198790536	2	90	1	3	4	26	1	6	1	3795.915099	0.6140710114
3796.714292	1.198799732	2	91	1	3	4	27	1	6	1	3797.113905	0.7297180159
3797.913092	1.198809796	2	92	1	3	4	28	2	5	1	3798.312696	0.7296742184
3799.111902	1.198784898	2	93	1	3	4	29	1	5	1	3799.51149	0.6144547796
3800.310687	1.198799055	2	94	1	3	4	30	1	5	1	3800.710284	0.7303490274
3801.509486	1.198798168	2	95	1	3	4	31	1	4	n/a	3801.909081	n/a
3802.708284	1.198712496	2	96	1	3	4	32	2	4	0	3803.107879	-0.06834826816
3803.906996	1.198880836	2	97	1	9	5	1	3	n/a	n/a	n/a	n/a
3805.105877	1.198799309	2	98	1	9	5	2	3	n/a	n/a	n/a	n/a
3806.304677	1.198702755	2	99	1	9	5	3	3	n/a	n/a	n/a	n/a
3807.503379	1.198886573	2	100	1	9	5	4	3	n/a	n/a	n/a	n/a
3808.702266	1.1987971	2	101	1	9	5	5	3	n/a	n/a	n/a	n/a
3809.901063	1.198799764	2	102	1	9	5	6	3	n/a	n/a	n/a	n/a
3811.099863	1.19879212	2	103	1	9	5	7	3	n/a	n/a	n/a	n/a
3812.298655	1.198800616	2	104	1	9	5	8	3	n/a	n/a	n/a	n/a
3813.497456	1.1987928	2	105	1	9	5	9	3	n/a	n/a	n/a	n/a
3814.696248	1.198795832	2	106	1	9	5	10	3	n/a	n/a	n/a	n/a
3815.895044	1.198771796	2	107	1	9	5	11	3	n/a	n/a	n/a	n/a
3817.093816	1.198832789	2	108	1	9	5	12	3	n/a	n/a	n/a	n/a
3818.292649	1.198790941	2	109	1	9	5	13	3	n/a	n/a	n/a	n/a
3819.49144	1.198796743	2	110	1	9	5	14	3	n/a	n/a	n/a	n/a
3820.690236	1.1987906	2	111	1	9	5	15	3	n/a	n/a	n/a	n/a
3821.889027	1.198800136	2	112	1	9	5	16	3	n/a	n/a	n/a	n/a
3823.087827	1.198800575	2	113	1	5	6	1	2	5	1	3823.487327	0.6125514
3824.286628	1.198799761	2	114	1	5	6	2	2	5	0	3824.68622	0.3131883433
3825.485428	1.198788075	2	115	1	5	6	3	2	6	1	3825.885017	0.5292178433
3826.684216	1.1987979	2	116	1	5	6	4	2	6	1	3827.083797	0.434643
3827.883014	1.198801009	2	117	1	5	6	5	2	6	0	3828.282507	0.3144566
3829.081815	1.198793107	2	118	1	5	6	6	1	7	1	3829.481289	0.6120086
3830.280608	1.198799341	2	119	1	5	6	7	2	7	1	3830.680207	0.5292188637
3831.479407	1.198799543	2	120	1	5	6	8	1	7	n/a	3831.879007	n/a
3832.678207	1.198791584	2	121	1	5	6	9	2	7	n/a	3833.077801	n/a
3833.876998	1.198803396	2	122	1	5	6	10	1	7	n/a	3834.2766	n/a
3835.075802	1.198789936	2	123	1	5	6	11	2	7	n/a	3835.475403	n/a
3836.274591	1.198804732	2	124	1	5	6	12	2	7	0	3836.674193	-0.0544003
3837.473396	1.198749732	2	125	1	5	6	13	1	8	n/a	3837.872997	n/a
3838.672146	1.198845109	2	126	1	5	6	14	2	8	n/a	3839.071786	n/a
3839.870991	1.198791473	2	127	1	5	6	15	1	8	n/a	3840.270583	n/a
3841.069782	1.198791907	2	128	1	5	6	16	1	8	1	3841.469388	0.7128616159
3842.268574	1.198697111	2	129	1	5	6	17	2	8	1	3842.668181	0.5300626318
3843.467272	1.198901809	2	130	1	5	6	18	1	8	1	3843.866978	0.6136204478
3844.666173	1.198797311	2	131	1	5	6	19	2	7	n/a	3845.065771	n/a
3845.864971	1.198792552	2	132	1	5	6	20	1	7	1	3846.264568	0.6132427274
3847.063763	1.1987955	2	133	1	5	6	21	2	7	1	3847.463353	0.7134472
3848.262559	1.1988014	2	134	1	5	6	22	1	7	1	3848.662164	0.7133516751
3849.46136	1.198773127	2	135	1	5	6	23	1	6	1	3849.860959	0.713269491
3850.660133	1.198821284	2	136	1	5	6	24	2	6	1	3851.059755	0.7136642274
3851.858954	1.198790973	2	137	1	5	6	25	2	6	n/a	3852.258509	n/a
3853.057745	1.1987971	2	138	1	5	6	26	2	6	n/a	3853.457346	n/a
3854.256543	1.198710443	2	139	1	5	6	27	2	6	1	3854.656073	0.7129953
3855.455253	1.198896036	2	140	1	5	6	28	1	5	n/a	3855.85494	n/a
3856.654149	1.198789393	2	141	1	5	6	29	2	5	n/a	3857.05374	n/a
3857.852938	1.198795527	2	142	1	5	6	30	1	5	n/a	3858.252448	n/a
3859.051734	1.198800664	2	143	1	5	6	31	1	5	n/a	3859.451268	n/a
3860.250535	1.19878628	2	144	1	5	6	32	2	5	0	3860.650051	0.2285729
3861.449321	1.1987761	2	145	1	9	7	1	3	n/a	n/a	n/a	n/a
3862.648097	1.198827761	2	146	1	9	7	2	3	n/a	n/a	n/a	n/a
3863.846925	1.198797075	2	147	1	9	7	3	3	n/a	n/a	n/a	n/a
3865.045722	1.1987912	2	148	1	9	7	4	3	n/a	n/a	n/a	n/a
3866.244513	1.198801068	2	149	1	9	7	5	3	n/a	n/a	n/a	n/a
3867.443314	1.198729796	2	150	1	9	7	6	3	n/a	n/a	n/a	n/a
3868.642044	1.198866145	2	151	1	9	7	7	3	n/a	n/a	n/a	n/a
3869.84091	1.198797291	2	152	1	9	7	8	3	n/a	n/a	n/a	n/a
3871.039707	1.198790136	2	153	1	9	7	9	3	n/a	n/a	n/a	n/a
3872.238497	1.198621127	2	154	1	9	7	10	3	n/a	n/a	n/a	n/a
3873.437119	1.198968845	2	155	1	9	7	11	3	n/a	n/a	n/a	n/a
3874.636087	1.198801227	2	156	1	9	7	12	3	n/a	n/a	n/a	n/a
3875.834889	1.198805773	2	157	1	9	7	13	3	n/a	n/a	n/a	n/a
3877.033694	1.198787627	2	158	1	9	7	14	3	n/a	n/a	n/a	n/a
3878.232482	1.1987948	2	159	1	9	7	15	3	n/a	n/a	n/a	n/a
3879.431277	1.1988001	2	160	1	9	7	16	3	n/a	n/a	n/a	n/a
3880.630077	1.198808564	2	161	1	7	8	1	1	6	1	3881.029681	0.6132559184
3881.828886	1.198792593	2	162	1	7	8	2	1	6	1	3882.228473	0.6304158796
3883.027678	1.939717307	2	163	1	7	8	3	2	6	1	3883.427103	0.9346583
3884.967395	1.198795564	2	164	1	7	8	4	2	5	1	3885.36699	0.2333792433
3886.166191	1.1987936	2	165	1	7	8	5	2	5	0	3886.565792	0.5147657114
3887.364985	1.198805936	2	166	1	7	8	6	2	6	n/a	3887.764584	n/a
3888.563791	1.198791725	2	167	1	7	8	7	2	6	n/a	3888.963386	n/a
3889.762582	1.198790059	2	168	1	7	8	8	1	6	0	3890.16218	0.1319798796
3890.961372	1.198803964	2	169	1	7	8	9	1	7	1	3891.360978	0.5106637796
3892.160176	1.198640216	2	170	1	7	8	10	1	7	1	3892.559764	0.5144571
3893.358817	1.1989109	2	171	1	7	8	11	1	7	1	3893.758567	0.7311099318
3894.557727	1.198840282	2	172	1	7	8	12	1	6	1	3894.957364	0.7319055159
3895.756568	1.198790639	2	173	1	7	8	13	2	6	0	3896.156165	0.6143460478
3896.955358	1.198801632	2	174	1	7	8	14	2	7	1	3897.354949	0.7316519
3898.15416	1.198789504	2	175	1	7	8	15	2	7	1	3898.553739	0.7307517
3899.352949	1.198798464	2	176	1	7	8	16	2	7	1	3899.752557	0.7312578388
3900.551748	1.198802248	2	177	1	7	8	17	2	6	1	3900.951351	0.6143491637
3901.75055	1.198799125	2	178	1	7	8	18	2	6	1	3902.150144	0.6145525955
3902.949349	1.198789511	2	179	1	7	8	19	2	6	1	3903.348948	0.731372591
3904.148139	1.198756996	2	180	1	7	8	20	1	5	1	3904.547741	0.7539052433
3905.346896	1.1987955	2	181	1	7	8	21	2	5	1	3905.746544	0.7314858547
3906.545691	1.198847225	2	182	1	7	8	22	2	5	n/a	3906.945331	n/a
3907.744539	1.198789364	2	183	1	7	8	23	1	5	n/a	3908.144129	n/a
3908.943328	1.1987978	2	184	1	7	8	24	2	5	1	3909.342925	0.7310892433
3910.142126	1.198762111	2	185	1	7	8	25	2	4	1	3910.541724	0.4311289
3911.340888	1.198832357	2	186	1	7	8	26	2	4	0	3911.740531	0.6126004478
3912.53972	1.198661943	2	187	1	7	8	27	1	5	0	3912.939324	0.5148726706
3913.738382	1.1988994	2	188	1	7	8	28	2	6	1	3914.137997	0.614447
3914.937282	1.198829336	2	189	1	7	8	29	1	6	n/a	3915.336911	n/a
3916.136111	1.198792468	2	190	1	7	8	30	1	6	n/a	3916.535707	n/a
3917.334903	1.198803568	2	191	1	7	8	31	2	6	1	3917.734517	0.7311338159
3918.533707	1.198751827	2	192	1	7	8	32	2	6	1	3918.933306	0.6132178547
3919.732459	1.198841661	2	193	1	9	9	1	3	n/a	n/a	n/a	n/a
3920.9313	1.198797591	2	194	1	9	9	2	3	n/a	n/a	n/a	n/a
3922.130098	1.198789089	2	195	1	9	9	3	3	n/a	n/a	n/a	n/a
3923.328887	1.198799227	2	196	1	9	9	4	3	n/a	n/a	n/a	n/a
3924.527686	1.198800157	2	197	1	9	9	5	3	n/a	n/a	n/a	n/a
3925.726486	1.198781775	2	198	1	9	9	6	3	n/a	n/a	n/a	n/a
3926.925268	1.19881352	2	199	1	9	9	7	3	n/a	n/a	n/a	n/a
3928.124082	1.198798016	2	200	1	9	9	8	3	n/a	n/a	n/a	n/a
3929.32288	1.198795752	2	201	1	9	9	9	3	n/a	n/a	n/a	n/a
3930.521675	1.198790168	2	202	1	9	9	10	3	n/a	n/a	n/a	n/a
3931.720466	1.198799532	2	203	1	9	9	11	3	n/a	n/a	n/a	n/a
3932.919265	1.198794816	2	204	1	9	9	12	3	n/a	n/a	n/a	n/a
3934.11806	1.198805109	2	205	1	9	9	13	3	n/a	n/a	n/a	n/a
3935.316865	1.198789391	2	206	1	9	9	14	3	n/a	n/a	n/a	n/a
3936.515655	1.198801284	2	207	1	9	9	15	3	n/a	n/a	n/a	n/a
3937.714456	1.198765211	2	208	1	9	9	16	3	n/a	n/a	n/a	n/a
