onset	duration	run_number	trial_number	att_task	bar_direction	bar_period	bar_step	stim_noise_ori	stim_stair_val	response_val	probe_time	reaction_time
172519.2804	1.1989328	5	1	1	9	1	1	3	n/a	n/a	n/a	n/a
172520.4793	1.2004561	5	2	1	9	1	2	3	n/a	n/a	n/a	n/a
172521.6798	1.2004305	5	3	1	9	1	3	3	n/a	n/a	n/a	n/a
172522.8802	1.2003613	5	4	1	9	1	4	3	n/a	n/a	n/a	n/a
172524.0806	1.2004472	5	5	1	9	1	5	3	n/a	n/a	n/a	n/a
172525.281	1.2003506	5	6	1	9	1	6	3	n/a	n/a	n/a	n/a
172526.4814	1.2004163	5	7	1	9	1	7	3	n/a	n/a	n/a	n/a
172527.6818	1.2003684	5	8	1	9	1	8	3	n/a	n/a	n/a	n/a
172528.8822	1.2004549	5	9	1	9	1	9	3	n/a	n/a	n/a	n/a
172530.0826	1.2004689	5	10	1	9	1	10	3	n/a	n/a	n/a	n/a
172531.2831	1.2003333	5	11	1	9	1	11	3	n/a	n/a	n/a	n/a
172532.4834	1.2005776	5	12	1	9	1	12	3	n/a	n/a	n/a	n/a
172533.684	1.2002636	5	13	1	9	1	13	3	n/a	n/a	n/a	n/a
172534.8843	1.2003348	5	14	1	9	1	14	3	n/a	n/a	n/a	n/a
172536.0846	1.2005532	5	15	1	9	1	15	3	n/a	n/a	n/a	n/a
172537.2852	1.2004564	5	16	1	9	1	16	3	n/a	n/a	n/a	n/a
172538.4856	1.200439704	5	17	1	1	2	1	1	7	n/a	172538.8857	n/a
172539.686	1.200269696	5	18	1	1	2	2	2	7	0	172540.0861	0.7159259
172540.8863	1.2003264	5	19	1	1	2	3	1	8	1	172541.2865	0.4165827
172542.0866	1.2004492	5	20	1	1	2	4	2	8	1	172542.487	0.3343314
172543.2871	1.2004483	5	21	1	1	2	5	1	8	1	172543.6873	0.4342483
172544.4875	1.2004078	5	22	1	1	2	6	1	7	1	172544.8876	0.5162354
172545.688	1.2003816	5	23	1	1	2	7	2	7	0	172546.0882	0.6194816
172546.8883	1.2003837	5	24	1	1	2	8	2	8	1	172547.2885	0.7165143
172548.0887	1.2004889	5	25	1	1	2	9	2	8	1	172548.489	0.7184006
172549.2892	1.2003608	5	26	1	1	2	10	2	8	1	172549.6894	0.6165427
172550.4896	1.2004614	5	27	1	1	2	11	2	7	1	172550.8898	0.7200133
172551.69	1.2004882	5	28	1	1	2	12	2	7	1	172552.0901	0.5135486
172552.8905	1.2003454	5	29	1	1	2	13	1	7	1	172553.2905	0.4151794
172554.0909	1.200468	5	30	1	1	2	14	2	6	n/a	172554.491	n/a
172555.2913	1.2002899	5	31	1	1	2	15	2	6	1	172555.6913	0.614843
172556.4916	1.2004775	5	32	1	1	2	16	2	6	1	172556.8917	0.5144666
172557.6921	1.2004669	5	33	1	1	2	17	2	6	0	172558.0922	0.331901
172558.8926	1.2002958	5	34	1	1	2	18	2	7	1	172559.2926	0.5147772
172560.0929	1.200422	5	35	1	1	2	19	2	7	1	172560.493	0.3144465
172561.2933	1.2004093	5	36	1	1	2	20	1	7	1	172561.6935	0.4325809
172562.4937	1.200365	5	37	1	1	2	21	2	6	0	172562.8939	0.514893
172563.6941	1.2003784	5	38	1	1	2	22	1	7	1	172564.0942	0.6152711
172564.8944	1.2004884	5	39	1	1	2	23	1	7	1	172565.2947	0.6150452
172566.0949	1.2003743	5	40	1	1	2	24	2	7	1	172566.4951	0.5146555
172567.2953	1.2004759	5	41	1	1	2	25	2	6	1	172567.6954	0.5148858
172568.4958	1.2004646	5	42	1	1	2	26	1	6	1	172568.8959	0.5148841
172569.6962	1.2003322	5	43	1	1	2	27	2	6	1	172570.0962	0.2312212
172570.8966	1.2004325	5	44	1	1	2	28	1	5	0	172571.2967	0.3353095
172572.097	1.2003722	5	45	1	1	2	29	2	6	1	172572.4972	0.6145664
172573.2974	1.2003508	5	46	1	1	2	30	1	6	1	172573.6975	0.3153359
172574.4977	1.2005227	5	47	1	1	2	31	2	6	1	172574.8979	0.4150202
172575.6982	1.2003012	5	48	1	1	2	32	2	5	1	172576.0983	0.4137642
172576.8985	1.2004777	5	49	1	9	3	1	3	n/a	n/a	n/a	n/a
172578.099	1.200412	5	50	1	9	3	2	3	n/a	n/a	n/a	n/a
172579.2994	1.2003865	5	51	1	9	3	3	3	n/a	n/a	n/a	n/a
172580.4998	1.2003778	5	52	1	9	3	4	3	n/a	n/a	n/a	n/a
172581.7002	1.2088414	5	53	1	9	3	5	3	n/a	n/a	n/a	n/a
172582.909	1.2003564	5	54	1	9	3	6	3	n/a	n/a	n/a	n/a
172584.1094	1.2004186	5	55	1	9	3	7	3	n/a	n/a	n/a	n/a
172585.3098	1.200432	5	56	1	9	3	8	3	n/a	n/a	n/a	n/a
172586.5103	1.2003685	5	57	1	9	3	9	3	n/a	n/a	n/a	n/a
172587.7106	1.2004604	5	58	1	9	3	10	3	n/a	n/a	n/a	n/a
172588.9111	1.2003284	5	59	1	9	3	11	3	n/a	n/a	n/a	n/a
172590.1114	1.2004031	5	60	1	9	3	12	3	n/a	n/a	n/a	n/a
172591.3118	1.2004512	5	61	1	9	3	13	3	n/a	n/a	n/a	n/a
172592.5123	1.2003927	5	62	1	9	3	14	3	n/a	n/a	n/a	n/a
172593.7127	1.2004648	5	63	1	9	3	15	3	n/a	n/a	n/a	n/a
172594.9131	1.2003788	5	64	1	9	3	16	3	n/a	n/a	n/a	n/a
172596.1135	1.2004443	5	65	1	3	4	1	2	5	1	172596.5136	0.5141151
172597.3139	1.2003892	5	66	1	3	4	2	2	5	n/a	172597.714	n/a
172598.5143	1.2003195	5	67	1	3	4	3	2	5	1	172598.9145	0.6161871
172599.7147	1.2004601	5	68	1	3	4	4	2	4	n/a	172600.1149	n/a
172600.9151	1.2004043	5	69	1	3	4	5	2	4	n/a	172601.3153	n/a
172602.1155	1.2004841	5	70	1	3	4	6	2	4	0	172602.5156	0.7179912
172603.316	1.2003778	5	71	1	3	4	7	2	5	n/a	172603.7161	n/a
172604.5164	1.2003756	5	72	1	3	4	8	2	5	1	172604.9165	0.7162651
172605.7168	1.2003764	5	73	1	3	4	9	1	5	1	172606.1169	0.7175523
172606.9171	1.2003995	5	74	1	3	4	10	1	5	0	172607.3173	0.2360228
172608.1175	1.2004952	5	75	1	3	4	11	2	6	1	172608.5178	0.4145592
172609.318	1.200374	5	76	1	3	4	12	1	6	1	172609.7181	0.3318743
172610.5184	1.2003751	5	77	1	3	4	13	1	6	0	172610.9185	0.3171078
172611.7188	1.2087393	5	78	1	3	4	14	2	7	0	172612.119	0.4258252
172612.9275	1.2005126	5	79	1	3	4	15	2	8	1	172613.3277	0.6163035
172614.128	1.2004013	5	80	1	3	4	16	2	8	1	172614.5282	0.5163275
172615.3284	1.2003731	5	81	1	3	4	17	1	8	1	172615.7286	0.5163552
172616.5288	1.2004526	5	82	1	3	4	18	1	7	1	172616.9289	0.4163692
172617.7293	1.2003141	5	83	1	3	4	19	1	7	1	172618.1294	0.4324428
172618.9296	1.2004925	5	84	1	3	4	20	1	7	n/a	172619.3297	n/a
172620.1301	1.2003586	5	85	1	3	4	21	2	7	1	172620.5302	0.4175616
172621.3304	1.2004197	5	86	1	3	4	22	2	6	1	172621.7305	0.7172327
172622.5308	1.2003928	5	87	1	3	4	23	2	6	0	172622.931	0.5169439
172623.7312	1.2005559	5	88	1	3	4	24	1	7	1	172624.1314	0.5166064
172624.9318	1.2002682	5	89	1	3	4	25	1	7	1	172625.3318	0.7169053
172626.1321	1.2004627	5	90	1	3	4	26	2	7	n/a	172626.5322	n/a
172627.3325	1.2003599	5	91	1	3	4	27	2	7	n/a	172627.7326	n/a
172628.5329	1.2003972	5	92	1	3	4	28	2	7	1	172628.933	0.7170647
172629.7333	1.2003953	5	93	1	3	4	29	1	6	1	172630.1334	0.7173346
172630.9337	1.2004748	5	94	1	3	4	30	2	6	n/a	172631.334	n/a
172632.1341	1.2003337	5	95	1	3	4	31	2	6	n/a	172632.5343	n/a
172633.3345	1.2005681	5	96	1	3	4	32	2	6	n/a	172633.7347	n/a
172634.535	1.2002962	5	97	1	9	5	1	3	n/a	n/a	n/a	n/a
172635.7353	1.2004283	5	98	1	9	5	2	3	n/a	n/a	n/a	n/a
172636.9358	1.2003661	5	99	1	9	5	3	3	n/a	n/a	n/a	n/a
172638.1361	1.2004279	5	100	1	9	5	4	3	n/a	n/a	n/a	n/a
172639.3366	1.2004714	5	101	1	9	5	5	3	n/a	n/a	n/a	n/a
172640.537	1.2004315	5	102	1	9	5	6	3	n/a	n/a	n/a	n/a
172641.7375	1.2003536	5	103	1	9	5	7	3	n/a	n/a	n/a	n/a
172642.9378	1.2004961	5	104	1	9	5	8	3	n/a	n/a	n/a	n/a
172644.1383	1.2003043	5	105	1	9	5	9	3	n/a	n/a	n/a	n/a
172645.3386	1.2004737	5	106	1	9	5	10	3	n/a	n/a	n/a	n/a
172646.5391	1.2003631	5	107	1	9	5	11	3	n/a	n/a	n/a	n/a
172647.7395	1.200523	5	108	1	9	5	12	3	n/a	n/a	n/a	n/a
172648.94	1.2003716	5	109	1	9	5	13	3	n/a	n/a	n/a	n/a
172650.1404	1.2003276	5	110	1	9	5	14	3	n/a	n/a	n/a	n/a
172651.3407	1.2004251	5	111	1	9	5	15	3	n/a	n/a	n/a	n/a
172652.5411	1.2003751	5	112	1	9	5	16	3	n/a	n/a	n/a	n/a
172653.7415	1.200434	5	113	1	5	6	1	1	6	1	172654.1416	0.713884
172654.9419	1.2003947	5	114	1	5	6	2	1	6	1	172655.342	0.614745
172656.1423	1.2004114	5	115	1	5	6	3	2	5	1	172656.5424	0.4321019
172657.3427	1.2003843	5	116	1	5	6	4	1	5	1	172657.7429	0.716332
172658.5431	1.2005105	5	117	1	5	6	5	2	5	0	172658.9432	0.5154522
172659.7436	1.2002896	5	118	1	5	6	6	1	6	1	172660.1437	0.5151394
172660.9439	1.2005538	5	119	1	5	6	7	1	6	1	172661.3441	0.6150105
172662.1445	1.2002919	5	120	1	5	6	8	2	6	1	172662.5445	0.614928
172663.3448	1.2004528	5	121	1	5	6	9	2	5	0	172663.7449	0.6152858
172664.5452	1.2003941	5	122	1	5	6	10	2	6	0	172664.9453	0.5151987
172665.7456	1.2004331	5	123	1	5	6	11	2	7	n/a	172666.1459	n/a
172666.946	1.2003985	5	124	1	5	6	12	2	7	1	172667.3461	0.6152625
172668.1464	1.2003566	5	125	1	5	6	13	1	7	1	172668.5466	0.6148708
172669.3468	1.2005886	5	126	1	5	6	14	2	7	1	172669.747	0.5153155
172670.5474	1.2002626	5	127	1	5	6	15	2	6	1	172670.9475	0.6154885
172671.7476	1.200453	5	128	1	5	6	16	1	6	1	172672.1477	0.5149886
172672.9481	1.2003612	5	129	1	5	6	17	1	6	1	172673.3481	0.6156694
172674.1485	1.2003782	5	130	1	5	6	18	1	5	1	172674.5486	0.6150943
172675.3488	1.2004688	5	131	1	5	6	19	1	5	1	172675.749	0.7168361
172676.5493	1.2003157	5	132	1	5	6	20	2	5	1	172676.9494	0.515373
172677.7496	1.2005446	5	133	1	5	6	21	1	4	0	172678.1498	0.7155749
172678.9502	1.2003653	5	134	1	5	6	22	2	5	n/a	172679.3502	n/a
172680.1505	1.2003553	5	135	1	5	6	23	2	5	0	172680.5506	0.4154077
172681.3509	1.2004162	5	136	1	5	6	24	2	6	n/a	172681.7511	n/a
172682.5513	1.2004297	5	137	1	5	6	25	2	6	n/a	172682.9514	n/a
172683.7517	1.2004581	5	138	1	5	6	26	2	6	0	172684.152	0.6153615
172684.9522	1.2003658	5	139	1	5	6	27	1	7	1	172685.3523	0.7160034
172686.1525	1.2003602	5	140	1	5	6	28	1	7	n/a	172686.5527	n/a
172687.3529	1.2004652	5	141	1	5	6	29	1	7	n/a	172687.7531	n/a
172688.5534	1.200403	5	142	1	5	6	30	1	7	n/a	172688.9535	n/a
172689.7538	1.2003918	5	143	1	5	6	31	2	7	1	172690.1539	0.5142746
172690.9542	1.2004234	5	144	1	5	6	32	2	7	1	172691.3544	0.613292
172692.1546	1.2004669	5	145	1	9	7	1	3	n/a	n/a	n/a	n/a
172693.3551	1.2003349	5	146	1	9	7	2	3	n/a	n/a	n/a	n/a
172694.5554	1.2004445	5	147	1	9	7	3	3	n/a	n/a	n/a	n/a
172695.7558	1.2005467	5	148	1	9	7	4	3	n/a	n/a	n/a	n/a
172696.9564	1.200399	5	149	1	9	7	5	3	n/a	n/a	n/a	n/a
172698.1568	1.200323	5	150	1	9	7	6	3	n/a	n/a	n/a	n/a
172699.3571	1.2003053	5	151	1	9	7	7	3	n/a	n/a	n/a	n/a
172700.5574	1.2006346	5	152	1	9	7	8	3	n/a	n/a	n/a	n/a
172701.758	1.2003571	5	153	1	9	7	9	3	n/a	n/a	n/a	n/a
172702.9584	1.2004309	5	154	1	9	7	10	3	n/a	n/a	n/a	n/a
172704.1588	1.2003135	5	155	1	9	7	11	3	n/a	n/a	n/a	n/a
172705.3591	1.2003772	5	156	1	9	7	12	3	n/a	n/a	n/a	n/a
172706.5595	1.2004323	5	157	1	9	7	13	3	n/a	n/a	n/a	n/a
172707.76	1.2005001	5	158	1	9	7	14	3	n/a	n/a	n/a	n/a
172708.9605	1.20042	5	159	1	9	7	15	3	n/a	n/a	n/a	n/a
172710.1609	1.2002284	5	160	1	9	7	16	3	n/a	n/a	n/a	n/a
172711.3611	1.2004077	5	161	1	7	8	1	2	6	0	172711.7613	0.4149798
172712.5615	1.2005478	5	162	1	7	8	2	2	7	1	172712.9617	0.515448
172713.7621	1.2003502	5	163	1	7	8	3	2	7	1	172714.1622	0.6170577
172714.9624	1.2004045	5	164	1	7	8	4	1	7	1	172715.3625	0.349278
172716.1628	1.2003691	5	165	1	7	8	5	1	6	0	172716.563	0.517324
172717.3632	1.2005581	5	166	1	7	8	6	1	7	n/a	172717.7634	n/a
172718.5637	1.2003312	5	167	1	7	8	7	2	7	1	172718.9637	0.6095633
172719.7641	1.200364	5	168	1	7	8	8	2	7	1	172720.1642	0.7169131
172720.9644	1.2004251	5	169	1	7	8	9	2	7	n/a	172721.3646	n/a
172722.1649	1.2004689	5	170	1	7	8	10	1	7	1	172722.565	0.5163203
172723.3653	1.2003309	5	171	1	7	8	11	1	6	1	172723.7654	0.5171915
172724.5657	1.2004798	5	172	1	7	8	12	1	6	1	172724.9658	0.6169782
172725.7661	1.2003466	5	173	1	7	8	13	2	6	1	172726.1662	0.6171391
172726.9665	1.2004108	5	174	1	7	8	14	2	5	1	172727.3667	0.516063
172728.1669	1.2003821	5	175	1	7	8	15	2	5	1	172728.567	0.7174094
172729.3673	1.2004014	5	176	1	7	8	16	1	5	1	172729.7675	0.5163992
172730.5677	1.2004467	5	177	1	7	8	17	1	4	1	172730.9679	0.6168265
172731.7681	1.2004139	5	178	1	7	8	18	1	4	1	172732.1683	0.6169693
172732.9685	1.2003944	5	179	1	7	8	19	1	4	1	172733.3686	0.7172928
172734.1689	1.2004517	5	180	1	7	8	20	2	3	n/a	172734.5691	n/a
172735.3694	1.2003218	5	181	1	7	8	21	2	3	1	172735.7695	-0.03638819998
172736.5697	1.200508	5	182	1	7	8	22	1	3	n/a	172736.9699	n/a
172737.7702	1.2003703	5	183	1	7	8	23	2	3	1	172738.1703	0.6172649
172738.9706	1.2003779	5	184	1	7	8	24	1	3	n/a	172739.3707	n/a
172740.171	1.2004212	5	185	1	7	8	25	1	3	n/a	172740.5711	n/a
172741.3714	1.2005246	5	186	1	7	8	26	2	3	0	172741.7715	0.0469209
172742.5719	1.2003733	5	187	1	7	8	27	1	4	0	172742.9721	0.3165992
172743.7723	1.2003461	5	188	1	7	8	28	1	5	1	172744.1724	0.2161955
172744.9726	1.2004686	5	189	1	7	8	29	2	5	0	172745.3728	0.716931
172746.1731	1.200335	5	190	1	7	8	30	2	6	1	172746.5732	0.2308397
172747.3734	1.2003981	5	191	1	7	8	31	2	6	1	172747.7736	0.415956
172748.5738	1.200491	5	192	1	7	8	32	2	6	1	172748.974	0.7146091
172749.7743	1.2002816	5	193	1	9	9	1	3	n/a	n/a	n/a	n/a
172750.9746	1.2004652	5	194	1	9	9	2	3	n/a	n/a	n/a	n/a
172752.1751	1.2004061	5	195	1	9	9	3	3	n/a	n/a	n/a	n/a
172753.3755	1.2004521	5	196	1	9	9	4	3	n/a	n/a	n/a	n/a
172754.5759	1.2003805	5	197	1	9	9	5	3	n/a	n/a	n/a	n/a
172755.7763	1.2004307	5	198	1	9	9	6	3	n/a	n/a	n/a	n/a
172756.9767	1.2004441	5	199	1	9	9	7	3	n/a	n/a	n/a	n/a
172758.1772	1.2003391	5	200	1	9	9	8	3	n/a	n/a	n/a	n/a
172759.3775	1.2003799	5	201	1	9	9	9	3	n/a	n/a	n/a	n/a
172760.5779	1.2004583	5	202	1	9	9	10	3	n/a	n/a	n/a	n/a
172761.7784	1.2005518	5	203	1	9	9	11	3	n/a	n/a	n/a	n/a
172762.9789	1.2003336	5	204	1	9	9	12	3	n/a	n/a	n/a	n/a
172764.1793	1.2003519	5	205	1	9	9	13	3	n/a	n/a	n/a	n/a
172765.3796	1.200471	5	206	1	9	9	14	3	n/a	n/a	n/a	n/a
172766.5801	1.2002947	5	207	1	9	9	15	3	n/a	n/a	n/a	n/a
172767.7804	1.2004412	5	208	1	9	9	16	3	n/a	n/a	n/a	n/a
