onset	duration	run_number	trial_number	att_task	bar_direction	bar_period	bar_step	stim_noise_ori	stim_stair_val	response_val	probe_time	reaction_time
171602.8106	1.2059404	2	1	1	9	1	1	3	n/a	n/a	n/a	n/a
171604.0165	1.2004141	2	2	1	9	1	2	3	n/a	n/a	n/a	n/a
171605.217	1.2003788	2	3	1	9	1	3	3	n/a	n/a	n/a	n/a
171606.4173	1.2003774	2	4	1	9	1	4	3	n/a	n/a	n/a	n/a
171607.6177	1.2004549	2	5	1	9	1	5	3	n/a	n/a	n/a	n/a
171608.8182	1.2004304	2	6	1	9	1	6	3	n/a	n/a	n/a	n/a
171610.0186	1.2003922	2	7	1	9	1	7	3	n/a	n/a	n/a	n/a
171611.219	1.2004074	2	8	1	9	1	8	3	n/a	n/a	n/a	n/a
171612.4194	1.2004735	2	9	1	9	1	9	3	n/a	n/a	n/a	n/a
171613.6199	1.2004147	2	10	1	9	1	10	3	n/a	n/a	n/a	n/a
171614.8203	1.2003042	2	11	1	9	1	11	3	n/a	n/a	n/a	n/a
171616.0206	1.2004535	2	12	1	9	1	12	3	n/a	n/a	n/a	n/a
171617.221	1.2004585	2	13	1	9	1	13	3	n/a	n/a	n/a	n/a
171618.4215	1.2003648	2	14	1	9	1	14	3	n/a	n/a	n/a	n/a
171619.6219	1.2004523	2	15	1	9	1	15	3	n/a	n/a	n/a	n/a
171620.8223	1.200333	2	16	1	9	1	16	3	n/a	n/a	n/a	n/a
171622.0226	1.2003758	2	17	1	1	2	1	2	7	1	171622.4228	0.614465
171623.223	1.2004415	2	18	1	1	2	2	2	7	1	171623.6233	0.5156426
171624.4235	1.2004288	2	19	1	1	2	3	1	7	1	171624.8237	0.5166653
171625.6239	1.2004686	2	20	1	1	2	4	1	6	0	171626.024	0.6157577
171626.8244	1.2003824	2	21	1	1	2	5	2	7	1	171627.2245	0.6159614
171628.0247	1.200398	2	22	1	1	2	6	2	7	1	171628.4248	0.7228083
171629.2251	1.2005158	2	23	1	1	2	7	1	7	1	171629.6253	0.4164824
171630.4257	1.2003064	2	24	1	1	2	8	2	6	0	171630.8257	0.6157555
171631.626	1.2004086	2	25	1	1	2	9	1	7	n/a	171632.0261	n/a
171632.8264	1.2004316	2	26	1	1	2	10	1	7	n/a	171633.2264	n/a
171634.0268	1.2003503	2	27	1	1	2	11	1	7	0	171634.4269	0.7163353
171635.2272	1.2004236	2	28	1	1	2	12	1	8	1	171635.6274	0.7175749
171636.4276	1.2003987	2	29	1	1	2	13	2	8	1	171636.8277	0.4168874
171637.628	1.2004851	2	30	1	1	2	14	2	8	1	171638.0281	0.5150605
171638.8285	1.2003561	2	31	1	1	2	15	2	7	1	171639.2285	0.7161069
171640.0288	1.2005015	2	32	1	1	2	16	2	7	n/a	171640.4289	n/a
171641.2293	1.2002661	2	33	1	1	2	17	1	7	n/a	171641.6293	n/a
171642.4296	1.2005429	2	34	1	1	2	18	1	7	1	171642.8298	0.6185287
171643.6301	1.2003872	2	35	1	1	2	19	2	7	1	171644.0302	0.6150171
171644.8305	1.2002938	2	36	1	1	2	20	1	6	1	171645.2306	0.6163725
171646.0308	1.2005094	2	37	1	1	2	21	1	6	1	171646.4309	0.6149485
171647.2313	1.2003559	2	38	1	1	2	22	2	6	1	171647.6315	0.6151274
171648.4317	1.2004244	2	39	1	1	2	23	2	5	n/a	171648.8319	n/a
171649.6321	1.2004225	2	40	1	1	2	24	1	5	0	171650.0322	0.6144305
171650.8325	1.2004654	2	41	1	1	2	25	2	6	0	171651.2327	0.5155424
171652.033	1.2003536	2	42	1	1	2	26	1	7	0	171652.4331	0.515147
171653.2333	1.2003937	2	43	1	1	2	27	1	8	0	171653.6334	0.6156507
171654.4337	1.2003885	2	44	1	1	2	28	1	9	0	171654.834	0.6144419
171655.6341	1.2005112	2	45	1	1	2	29	1	10	0	171656.0342	0.5149362
171656.8346	1.2003033	2	46	1	1	2	30	2	11	0	171657.2347	0.5150322
171658.0349	1.2004536	2	47	1	1	2	31	1	12	1	171658.4351	0.714562
171659.2354	1.2003583	2	48	1	1	2	32	2	12	n/a	171659.6356	n/a
171660.4358	1.2003826	2	49	1	9	3	1	3	n/a	n/a	n/a	n/a
171661.6361	1.2005177	2	50	1	9	3	2	3	n/a	n/a	n/a	n/a
171662.8367	1.2003795	2	51	1	9	3	3	3	n/a	n/a	n/a	n/a
171664.037	1.2004405	2	52	1	9	3	4	3	n/a	n/a	n/a	n/a
171665.2375	1.2003499	2	53	1	9	3	5	3	n/a	n/a	n/a	n/a
171666.4378	1.2003596	2	54	1	9	3	6	3	n/a	n/a	n/a	n/a
171667.6382	1.2005896	2	55	1	9	3	7	3	n/a	n/a	n/a	n/a
171668.8388	1.2002407	2	56	1	9	3	8	3	n/a	n/a	n/a	n/a
171670.039	1.2004486	2	57	1	9	3	9	3	n/a	n/a	n/a	n/a
171671.2395	1.2003603	2	58	1	9	3	10	3	n/a	n/a	n/a	n/a
171672.4398	1.2004938	2	59	1	9	3	11	3	n/a	n/a	n/a	n/a
171673.6403	1.2003177	2	60	1	9	3	12	3	n/a	n/a	n/a	n/a
171674.8406	1.2004707	2	61	1	9	3	13	3	n/a	n/a	n/a	n/a
171676.0411	1.2004187	2	62	1	9	3	14	3	n/a	n/a	n/a	n/a
171677.2415	1.2003701	2	63	1	9	3	15	3	n/a	n/a	n/a	n/a
171678.4419	1.2004798	2	64	1	9	3	16	3	n/a	n/a	n/a	n/a
171679.6424	1.2003403	2	65	1	3	4	1	2	12	1	171680.0425	0.7146764
171680.8427	1.2004246	2	66	1	3	4	2	1	12	1	171681.2429	0.3401982
171682.0431	1.2004416	2	67	1	3	4	3	1	11	1	171682.4433	0.3428293
171683.2436	1.2003998	2	68	1	3	4	4	1	11	1	171683.6437	0.7173679
171684.444	1.2004173	2	69	1	3	4	5	1	11	0	171684.8443	0.6161787
171685.6444	1.2003887	2	70	1	3	4	6	2	12	1	171686.0445	0.4171474
171686.8448	1.2004096	2	71	1	3	4	7	1	12	1	171687.2449	0.4168223
171688.0452	1.2005179	2	72	1	3	4	8	1	12	1	171688.4455	0.6161777
171689.2457	1.2002406	2	73	1	3	4	9	2	11	1	171689.6458	0.4180988
171690.446	1.2005288	2	74	1	3	4	10	2	11	1	171690.8462	0.416923
171691.6465	1.2003408	2	75	1	3	4	11	1	11	1	171692.0467	0.4168952
171692.8468	1.2004069	2	76	1	3	4	12	2	10	1	171693.2469	0.5162363
171694.0472	1.2004857	2	77	1	3	4	13	2	10	1	171694.4474	0.6159254
171695.2477	1.2002842	2	78	1	3	4	14	1	10	1	171695.6478	0.4413421
171696.448	1.2004424	2	79	1	3	4	15	2	9	n/a	171696.8482	n/a
171697.6484	1.2003935	2	80	1	3	4	16	1	9	1	171698.0487	0.5166108
171698.8488	1.2006056	2	81	1	3	4	17	1	9	1	171699.2491	0.5169014
171700.0494	1.2002713	2	82	1	3	4	18	1	9	1	171700.4494	0.416778
171701.2497	1.2004028	2	83	1	3	4	19	2	8	1	171701.6498	0.5161946
171702.4501	1.2005465	2	84	1	3	4	20	1	8	1	171702.8503	0.5168488
171703.6507	1.2003833	2	85	1	3	4	21	1	8	1	171704.0507	0.5163511
171704.851	1.2002757	2	86	1	3	4	22	2	7	1	171705.251	0.3335112
171706.0513	1.2004276	2	87	1	3	4	23	1	7	1	171706.4515	0.7170701
171707.2517	1.2003878	2	88	1	3	4	24	2	7	1	171707.6519	0.6163533
171708.4521	1.2005023	2	89	1	3	4	25	2	6	1	171708.8524	0.6158691
171709.6526	1.2004607	2	90	1	3	4	26	1	6	1	171710.0527	0.4169273
171710.8531	1.2003287	2	91	1	3	4	27	1	6	1	171711.2531	0.7171449
171712.0534	1.200311	2	92	1	3	4	28	2	5	1	171712.4536	0.5163489
171713.2537	1.2004765	2	93	1	3	4	29	1	5	1	171713.654	0.4167216
171714.4542	1.200348	2	94	1	3	4	30	2	5	1	171714.8544	0.442631
171715.6546	1.2004396	2	95	1	3	4	31	1	4	1	171716.0548	0.5153857
171716.855	1.20051	2	96	1	3	4	32	2	4	1	171717.2552	0.5191292
171718.0555	1.2003299	2	97	1	9	5	1	3	n/a	n/a	n/a	n/a
171719.2558	1.2005431	2	98	1	9	5	2	3	n/a	n/a	n/a	n/a
171720.4564	1.200297	2	99	1	9	5	3	3	n/a	n/a	n/a	n/a
171721.6567	1.2004112	2	100	1	9	5	4	3	n/a	n/a	n/a	n/a
171722.8571	1.2004162	2	101	1	9	5	5	3	n/a	n/a	n/a	n/a
171724.0575	1.2003406	2	102	1	9	5	6	3	n/a	n/a	n/a	n/a
171725.2578	1.2004944	2	103	1	9	5	7	3	n/a	n/a	n/a	n/a
171726.4583	1.2003712	2	104	1	9	5	8	3	n/a	n/a	n/a	n/a
171727.6587	1.2004915	2	105	1	9	5	9	3	n/a	n/a	n/a	n/a
171728.8592	1.2003648	2	106	1	9	5	10	3	n/a	n/a	n/a	n/a
171730.0596	1.2003136	2	107	1	9	5	11	3	n/a	n/a	n/a	n/a
171731.2599	1.2005044	2	108	1	9	5	12	3	n/a	n/a	n/a	n/a
171732.4604	1.2004297	2	109	1	9	5	13	3	n/a	n/a	n/a	n/a
171733.6608	1.2003639	2	110	1	9	5	14	3	n/a	n/a	n/a	n/a
171734.8612	1.2004024	2	111	1	9	5	15	3	n/a	n/a	n/a	n/a
171736.0616	1.2004043	2	112	1	9	5	16	3	n/a	n/a	n/a	n/a
171737.262	1.2004415	2	113	1	5	6	1	1	4	n/a	171737.6621	n/a
171738.4624	1.2003151	2	114	1	5	6	2	2	4	1	171738.8625	0.1309446
171739.6627	1.2004676	2	115	1	5	6	3	1	3	1	171740.063	0.3411121
171740.8632	1.2004685	2	116	1	5	6	4	1	3	0	171741.2634	0.3143399
171742.0637	1.200295	2	117	1	5	6	5	2	4	1	171742.4639	0.3147545
171743.264	1.2004762	2	118	1	5	6	6	1	4	0	171743.6642	0.614791
171744.4645	1.2003724	2	119	1	5	6	7	1	5	1	171744.8646	0.5148221
171745.6648	1.2004737	2	120	1	5	6	8	2	5	1	171746.065	0.4424656
171746.8653	1.20041	2	121	1	5	6	9	1	5	1	171747.2654	0.4158454
171748.0657	1.2004243	2	122	1	5	6	10	1	4	0	171748.4658	0.4156327
171749.2661	1.2004091	2	123	1	5	6	11	2	5	0	171749.6662	0.5155946
171750.4665	1.2003351	2	124	1	5	6	12	2	6	1	171750.8668	0.6148352
171751.6669	1.200442	2	125	1	5	6	13	2	6	n/a	171752.0672	n/a
171752.8673	1.200423	2	126	1	5	6	14	2	6	1	171753.2675	0.5162823
171754.0677	1.2003428	2	127	1	5	6	15	2	6	1	171754.4678	0.6147426
171755.2681	1.200537	2	128	1	5	6	16	2	5	0	171755.6683	0.6159149
171756.4686	1.2004562	2	129	1	5	6	17	1	6	1	171756.8687	0.5146025
171757.6691	1.2002933	2	130	1	5	6	18	2	6	1	171758.069	0.614736
171758.8694	1.200379	2	131	1	5	6	19	1	6	1	171759.2695	0.6149892
171760.0698	1.2005256	2	132	1	5	6	20	1	5	n/a	171760.4699	n/a
171761.2703	1.2003532	2	133	1	5	6	21	1	5	1	171761.6703	0.0296223
171762.4706	1.200366	2	134	1	5	6	22	2	5	0	171762.8707	0.2299682
171763.671	1.2004818	2	135	1	5	6	23	1	6	n/a	171764.0711	n/a
171764.8715	1.2003927	2	136	1	5	6	24	1	6	0	171765.2716	0.4302255
171766.0719	1.200352	2	137	1	5	6	25	1	7	0	171766.4719	0.4157363
171767.2722	1.2003862	2	138	1	5	6	26	2	8	0	171767.6724	0.7168354
171768.4726	1.2004428	2	139	1	5	6	27	1	9	1	171768.8728	0.715367
171769.6731	1.2004731	2	140	1	5	6	28	2	9	1	171770.0732	0.6149927
171770.8735	1.2003664	2	141	1	5	6	29	1	9	1	171771.2736	0.7161589
171772.0739	1.2003932	2	142	1	5	6	30	1	8	1	171772.474	0.6152045
171773.2743	1.2005399	2	143	1	5	6	31	1	8	1	171773.6744	0.6143755
171774.4748	1.2002394	2	144	1	5	6	32	2	8	0	171774.8748	0.5129453
171775.6751	1.2004109	2	145	1	9	7	1	3	n/a	n/a	n/a	n/a
171776.8755	1.2003961	2	146	1	9	7	2	3	n/a	n/a	n/a	n/a
171778.0759	1.2004695	2	147	1	9	7	3	3	n/a	n/a	n/a	n/a
171779.2763	1.200537	2	148	1	9	7	4	3	n/a	n/a	n/a	n/a
171780.4769	1.2002515	2	149	1	9	7	5	3	n/a	n/a	n/a	n/a
171781.6771	1.2004266	2	150	1	9	7	6	3	n/a	n/a	n/a	n/a
171782.8776	1.2003926	2	151	1	9	7	7	3	n/a	n/a	n/a	n/a
171784.0779	1.2004665	2	152	1	9	7	8	3	n/a	n/a	n/a	n/a
171785.2784	1.2003785	2	153	1	9	7	9	3	n/a	n/a	n/a	n/a
171786.4788	1.2004829	2	154	1	9	7	10	3	n/a	n/a	n/a	n/a
171787.6793	1.2002916	2	155	1	9	7	11	3	n/a	n/a	n/a	n/a
171788.8796	1.2003904	2	156	1	9	7	12	3	n/a	n/a	n/a	n/a
171790.08	1.2004553	2	157	1	9	7	13	3	n/a	n/a	n/a	n/a
171791.2804	1.2004169	2	158	1	9	7	14	3	n/a	n/a	n/a	n/a
171792.4808	1.2003806	2	159	1	9	7	15	3	n/a	n/a	n/a	n/a
171793.6812	1.2005505	2	160	1	9	7	16	3	n/a	n/a	n/a	n/a
171794.8818	1.2003398	2	161	1	7	8	1	1	9	1	171795.2818	0.6153614
171796.0821	1.2004113	2	162	1	7	8	2	2	9	1	171796.4822	0.6151576
171797.2825	1.2003492	2	163	1	7	8	3	2	9	n/a	171797.6826	n/a
171798.4829	1.2004303	2	164	1	7	8	4	1	9	1	171798.883	0.4382452
171799.6833	1.200439	2	165	1	7	8	5	2	8	1	171800.0835	0.6163151
171800.8837	1.2003307	2	166	1	7	8	6	2	8	n/a	171801.2838	n/a
171802.0841	1.200493	2	167	1	7	8	7	2	8	n/a	171802.4843	n/a
171803.2846	1.2003195	2	168	1	7	8	8	2	8	1	171803.6847	0.7174212
171804.4849	1.2004975	2	169	1	7	8	9	2	8	0	171804.885	0.3288788
171805.6854	1.2004063	2	170	1	7	8	10	2	9	1	171806.0855	0.5164769
171806.8858	1.2003439	2	171	1	7	8	11	2	9	1	171807.2859	0.6167966
171808.0861	1.2005188	2	172	1	7	8	12	1	9	1	171808.4863	0.5163919
171809.2866	1.2003584	2	173	1	7	8	13	2	8	1	171809.6867	0.7168289
171810.487	1.2005818	2	174	1	7	8	14	2	8	1	171810.8871	0.5167347
171811.6876	1.2001813	2	175	1	7	8	15	1	8	1	171812.0875	0.4179552
171812.8878	1.2005113	2	176	1	7	8	16	2	7	1	171813.2879	0.5164541
171814.0883	1.2003728	2	177	1	7	8	17	2	7	1	171814.4883	0.5163604
171815.2886	1.2004018	2	178	1	7	8	18	1	7	1	171815.6888	0.4167349
171816.489	1.2004493	2	179	1	7	8	19	2	6	1	171816.8891	0.4424601
171817.6895	1.2003534	2	180	1	7	8	20	2	6	n/a	171818.0897	n/a
171818.8899	1.2004185	2	181	1	7	8	21	1	6	0	171819.29	-0.06849999999
171820.0903	1.2004054	2	182	1	7	8	22	2	7	1	171820.4904	0.4177916
171821.2907	1.2004102	2	183	1	7	8	23	1	7	1	171821.6908	0.4174028
171822.4911	1.2004428	2	184	1	7	8	24	2	7	1	171822.8912	0.5164179
171823.6915	1.2003826	2	185	1	7	8	25	2	6	0	171824.0917	0.4170583
171824.8919	1.2003746	2	186	1	7	8	26	2	7	1	171825.2919	0.4169584
171826.0923	1.2005719	2	187	1	7	8	27	2	7	1	171826.4925	0.716848
171827.2929	1.2002765	2	188	1	7	8	28	1	7	1	171827.6928	0.4158421
171828.4931	1.2003952	2	189	1	7	8	29	2	6	n/a	171828.8932	n/a
171829.6935	1.200348	2	190	1	7	8	30	1	6	1	171830.0937	-0.06884729999
171830.8939	1.2005089	2	191	1	7	8	31	2	6	1	171831.294	0.6166802
171832.0944	1.2003268	2	192	1	7	8	32	1	6	n/a	171832.4945	n/a
171833.2947	1.2004388	2	193	1	9	9	1	3	n/a	n/a	n/a	n/a
171834.4952	1.2005002	2	194	1	9	9	2	3	n/a	n/a	n/a	n/a
171835.6957	1.2003403	2	195	1	9	9	3	3	n/a	n/a	n/a	n/a
171836.896	1.2004757	2	196	1	9	9	4	3	n/a	n/a	n/a	n/a
171838.0965	1.2003113	2	197	1	9	9	5	3	n/a	n/a	n/a	n/a
171839.2968	1.2003878	2	198	1	9	9	6	3	n/a	n/a	n/a	n/a
171840.4972	1.2003862	2	199	1	9	9	7	3	n/a	n/a	n/a	n/a
171841.6976	1.2004842	2	200	1	9	9	8	3	n/a	n/a	n/a	n/a
171842.898	1.200426	2	201	1	9	9	9	3	n/a	n/a	n/a	n/a
171844.0985	1.2004099	2	202	1	9	9	10	3	n/a	n/a	n/a	n/a
171845.2989	1.2004983	2	203	1	9	9	11	3	n/a	n/a	n/a	n/a
171846.4994	1.2003697	2	204	1	9	9	12	3	n/a	n/a	n/a	n/a
171847.6997	1.2003354	2	205	1	9	9	13	3	n/a	n/a	n/a	n/a
171848.9001	1.2004332	2	206	1	9	9	14	3	n/a	n/a	n/a	n/a
171850.1005	1.2004401	2	207	1	9	9	15	3	n/a	n/a	n/a	n/a
171851.3009	1.2003676	2	208	1	9	9	16	3	n/a	n/a	n/a	n/a
