onset	duration	run_number	trial_number	att_task	bar_direction	bar_period	bar_step	stim_noise_ori	stim_stair_val	response_val	probe_time	reaction_time
5021.18648	1.199733114	1	1	1	9	1	1	3	9	n/a	5021.586233	n/a
5022.386213	1.200023747	1	2	1	9	1	2	3	9	n/a	5022.786229	n/a
5023.586237	1.199997429	1	3	1	9	1	3	3	9	n/a	5023.98609	n/a
5024.786235	1.200014824	1	4	1	9	1	4	3	9	n/a	5025.186228	n/a
5025.986249	1.200012933	1	5	1	9	1	5	3	9	n/a	5026.386235	n/a
5027.186262	1.199968886	1	6	1	9	1	6	3	9	n/a	5027.586238	n/a
5028.386231	1.199962925	1	7	1	9	1	7	3	9	n/a	5028.786218	n/a
5029.586194	1.200021675	1	8	1	9	1	8	3	9	n/a	5029.986236	n/a
5030.786216	1.200023618	1	9	1	9	1	9	3	9	n/a	5031.186232	n/a
5031.98624	1.200009426	1	10	1	9	1	10	3	9	n/a	5032.386237	n/a
5033.186249	1.200029463	1	11	1	9	1	11	3	9	n/a	5033.586212	n/a
5034.386278	1.199963004	1	12	1	9	1	12	3	9	n/a	5034.786252	n/a
5035.586241	1.200000344	1	13	1	9	1	13	3	9	n/a	5035.986152	n/a
5036.786242	1.200005981	1	14	1	9	1	14	3	9	n/a	5037.186158	n/a
5037.986248	1.199934872	1	15	1	9	1	15	3	9	n/a	5038.386289	n/a
5039.186183	1.200090497	1	16	1	9	1	16	3	9	n/a	5039.586172	n/a
5040.386273	1.199890724	1	17	1	1	2	1	2	9	n/a	5040.786293	n/a
5041.586164	1.200090581	1	18	1	1	2	2	2	9	n/a	5041.986268	n/a
5042.786254	1.199981652	1	19	1	1	2	3	1	9	n/a	5043.186259	n/a
5043.986236	1.200047327	1	20	1	1	2	4	1	9	n/a	5044.386267	n/a
5045.186283	1.199983422	1	21	1	1	2	5	1	9	n/a	5045.586249	n/a
5046.386267	1.200012057	1	22	1	1	2	6	2	9	n/a	5046.786255	n/a
5047.586279	1.199975678	1	23	1	1	2	7	2	9	n/a	5047.986258	n/a
5048.786255	1.200004341	1	24	1	1	2	8	1	9	n/a	5049.18625	n/a
5049.986259	1.200059239	1	25	1	1	2	9	1	9	n/a	5050.38624	n/a
5051.186318	1.199951779	1	26	1	1	2	10	2	9	n/a	5051.586264	n/a
5052.38627	1.200001343	1	27	1	1	2	11	2	9	n/a	5052.786247	n/a
5053.586271	1.200008027	1	28	1	1	2	12	2	9	n/a	5053.986379	n/a
5054.786279	1.199998478	1	29	1	1	2	13	1	9	n/a	5055.186278	n/a
5055.986278	1.200002322	1	30	1	1	2	14	2	9	n/a	5056.386261	n/a
5057.18628	1.199985058	1	31	1	1	2	15	1	9	n/a	5057.586289	n/a
5058.386265	1.200009353	1	32	1	1	2	16	1	9	n/a	5058.786269	n/a
5059.586274	1.199997299	1	33	1	1	2	17	1	9	n/a	5059.986235	n/a
5060.786272	1.200023027	1	34	1	1	2	18	1	9	n/a	5061.186275	n/a
5061.986295	1.199892029	1	35	1	1	2	19	1	9	n/a	5062.386285	n/a
5063.186187	1.200115566	1	36	1	1	2	20	1	9	n/a	5063.586285	n/a
5064.386302	1.199982175	1	37	1	1	2	21	2	9	n/a	5064.786282	n/a
5065.586285	1.200000641	1	38	1	1	2	22	1	9	n/a	5065.986211	n/a
5066.786285	1.199978935	1	39	1	1	2	23	2	9	n/a	5067.18632	n/a
5067.986264	1.200024456	1	40	1	1	2	24	1	9	n/a	5068.386289	n/a
5069.186289	1.199992386	1	41	1	1	2	25	2	9	n/a	5069.586273	n/a
5070.386281	1.199942947	1	42	1	1	2	26	2	9	n/a	5070.786351	n/a
5071.586224	1.199998351	1	43	1	1	2	27	1	9	n/a	5071.986325	n/a
5072.786222	1.200092778	1	44	1	1	2	28	1	9	n/a	5073.186169	n/a
5073.986315	1.200005709	1	45	1	1	2	29	1	9	n/a	5074.386297	n/a
5075.186321	1.199998516	1	46	1	1	2	30	1	9	n/a	5075.586335	n/a
5076.386319	1.199974738	1	47	1	1	2	31	1	9	n/a	5076.786309	n/a
5077.586294	1.200007536	1	48	1	1	2	32	1	9	n/a	5077.986294	n/a
5078.786302	1.20001764	1	49	1	9	3	1	3	9	n/a	5079.186298	n/a
5079.986319	1.200005115	1	50	1	9	3	2	3	9	n/a	5080.386306	n/a
5081.186324	1.199978477	1	51	1	9	3	3	3	9	n/a	5081.586304	n/a
5082.386303	1.200000498	1	52	1	9	3	4	3	9	n/a	5082.786293	n/a
5083.586303	1.200004372	1	53	1	9	3	5	3	9	n/a	5083.986302	n/a
5084.786308	1.200016025	1	54	1	9	3	6	3	9	n/a	5085.186313	n/a
5085.986324	1.200050238	1	55	1	9	3	7	3	9	n/a	5086.386315	n/a
5087.186374	1.199939112	1	56	1	9	3	8	3	9	n/a	5087.58624	n/a
5088.386313	1.200001175	1	57	1	9	3	9	3	9	n/a	5088.786314	n/a
5089.586314	1.200002276	1	58	1	9	3	10	3	9	n/a	5089.986224	n/a
5090.786317	1.200014659	1	59	1	9	3	11	3	9	n/a	5091.186307	n/a
5091.986331	1.200011118	1	60	1	9	3	12	3	9	n/a	5092.386319	n/a
5093.186342	1.199997546	1	61	1	9	3	13	3	9	n/a	5093.5863	n/a
5094.38634	1.199982293	1	62	1	9	3	14	3	9	n/a	5094.786326	n/a
5095.586322	1.199997486	1	63	1	9	3	15	3	9	n/a	5095.986344	n/a
5096.78632	1.200011965	1	64	1	9	3	16	3	9	n/a	5097.18627	n/a
5097.986332	1.200013975	1	65	1	3	4	1	2	9	n/a	5098.386334	n/a
5099.186346	1.199986033	1	66	1	3	4	2	2	9	n/a	5099.586325	n/a
5100.386332	1.200010648	1	67	1	3	4	3	1	9	n/a	5100.786338	n/a
5101.586342	1.200060121	1	68	1	3	4	4	2	9	n/a	5101.986329	n/a
5102.786402	1.1999403	1	69	1	3	4	5	2	9	n/a	5103.186381	n/a
5103.986343	1.200000523	1	70	1	3	4	6	2	9	n/a	5104.386394	n/a
5105.186343	1.200002756	1	71	1	3	4	7	2	9	n/a	5105.586391	n/a
5106.386346	1.199980105	1	72	1	3	4	8	1	9	n/a	5106.786403	n/a
5107.586326	1.200041073	1	73	1	3	4	9	1	9	n/a	5107.986349	n/a
5108.786367	1.199977834	1	74	1	3	4	10	1	9	n/a	5109.186353	n/a
5109.986345	1.200013884	1	75	1	3	4	11	1	9	n/a	5110.386344	n/a
5111.186359	1.199981357	1	76	1	3	4	12	2	9	n/a	5111.586344	n/a
5112.38634	1.20004077	1	77	1	3	4	13	1	9	n/a	5112.786356	n/a
5113.586381	1.199986249	1	78	1	3	4	14	2	9	n/a	5113.986365	n/a
5114.786367	1.199991884	1	79	1	3	4	15	1	9	n/a	5115.186359	n/a
5115.986359	1.200006044	1	80	1	3	4	16	1	9	n/a	5116.386304	n/a
5117.186365	1.200071443	1	81	1	3	4	17	2	9	n/a	5117.586362	n/a
5118.386437	1.199925452	1	82	1	3	4	18	1	9	n/a	5118.786332	n/a
5119.586362	1.199985083	1	83	1	3	4	19	1	9	n/a	5119.986292	n/a
5120.786347	1.20001869	1	84	1	3	4	20	2	9	n/a	5121.186364	n/a
5121.986366	1.200002325	1	85	1	3	4	21	2	9	n/a	5122.386371	n/a
5123.186368	1.199994427	1	86	1	3	4	22	2	9	n/a	5123.586351	n/a
5124.386363	1.200011271	1	87	1	3	4	23	2	9	n/a	5124.786379	n/a
5125.586374	1.200006332	1	88	1	3	4	24	2	9	n/a	5125.986295	n/a
5126.78638	1.200005561	1	89	1	3	4	25	1	9	n/a	5127.186373	n/a
5127.986386	1.200000286	1	90	1	3	4	26	1	9	n/a	5128.386434	n/a
5129.186386	1.200000217	1	91	1	3	4	27	2	9	n/a	5129.586371	n/a
5130.386386	1.19997704	1	92	1	3	4	28	1	9	n/a	5130.786373	n/a
5131.586363	1.200053282	1	93	1	3	4	29	2	9	n/a	5131.986316	n/a
5132.786417	1.199970407	1	94	1	3	4	30	2	9	n/a	5133.186277	n/a
5133.986387	1.199987405	1	95	1	3	4	31	1	9	n/a	5134.386393	n/a
5135.186374	1.1999911	1	96	1	3	4	32	2	9	n/a	5135.586387	n/a
5136.386365	1.200026299	1	97	1	9	5	1	3	9	n/a	5136.786378	n/a
5137.586392	1.199973234	1	98	1	9	5	2	3	9	n/a	5137.986384	n/a
5138.786365	1.200010106	1	99	1	9	5	3	3	9	n/a	5139.186355	n/a
5139.986375	1.200081674	1	100	1	9	5	4	3	9	n/a	5140.386409	n/a
5141.186457	1.199944027	1	101	1	9	5	5	3	9	n/a	5141.586391	n/a
5142.386401	1.199975717	1	102	1	9	5	6	3	9	n/a	5142.786401	n/a
5143.586377	1.200004526	1	103	1	9	5	7	3	9	n/a	5143.986373	n/a
5144.786381	1.199999187	1	104	1	9	5	8	3	9	n/a	5145.186381	n/a
5145.98638	1.200012361	1	105	1	9	5	9	3	9	n/a	5146.38638	n/a
5147.186393	1.200001538	1	106	1	9	5	10	3	9	n/a	5147.586423	n/a
5148.386394	1.199993641	1	107	1	9	5	11	3	9	n/a	5148.786411	n/a
5149.586388	1.200013738	1	108	1	9	5	12	3	9	n/a	5149.986404	n/a
5150.786402	1.199965155	1	109	1	9	5	13	3	9	n/a	5151.186392	n/a
5151.986367	1.200039169	1	110	1	9	5	14	3	9	n/a	5152.386408	n/a
5153.186406	1.200020948	1	111	1	9	5	15	3	9	n/a	5153.586455	n/a
5154.386427	1.199969693	1	112	1	9	5	16	3	9	n/a	5154.786406	n/a
5155.586396	1.199996836	1	113	1	5	6	1	2	9	n/a	5155.98641	n/a
5156.786393	1.200029575	1	114	1	5	6	2	2	9	n/a	5157.186404	n/a
5157.986423	1.200006688	1	115	1	5	6	3	2	9	n/a	5158.386419	n/a
5159.18643	1.200028801	1	116	1	5	6	4	1	9	n/a	5159.586421	n/a
5160.386458	1.199960153	1	117	1	5	6	5	2	9	n/a	5160.786466	n/a
5161.586419	1.200001883	1	118	1	5	6	6	2	9	n/a	5161.98647	n/a
5162.78642	1.200000423	1	119	1	5	6	7	2	9	n/a	5163.186432	n/a
5163.986421	1.19999666	1	120	1	5	6	8	1	9	n/a	5164.386426	n/a
5165.186417	1.200012162	1	121	1	5	6	9	2	9	n/a	5165.586456	n/a
5166.38643	1.199971734	1	122	1	5	6	10	2	9	n/a	5166.78643	n/a
5167.586401	1.200031275	1	123	1	5	6	11	1	9	n/a	5167.986426	n/a
5168.786433	1.200006427	1	124	1	5	6	12	2	9	n/a	5169.18644	n/a
5169.986439	1.200055602	1	125	1	5	6	13	2	9	n/a	5170.386436	n/a
5171.186495	1.199944464	1	126	1	5	6	14	2	9	n/a	5171.58643	n/a
5172.386439	1.199997206	1	127	1	5	6	15	1	9	n/a	5172.786411	n/a
5173.586436	1.199981467	1	128	1	5	6	16	2	9	n/a	5173.986444	n/a
5174.786418	1.19996211	1	129	1	5	6	17	1	9	n/a	5175.186436	n/a
5175.98638	1.200054625	1	130	1	5	6	18	2	9	n/a	5176.386438	n/a
5177.186435	1.200004431	1	131	1	5	6	19	2	9	n/a	5177.586422	n/a
5178.386439	1.199980546	1	132	1	5	6	20	2	9	n/a	5178.786349	n/a
5179.58642	1.200024867	1	133	1	5	6	21	2	9	n/a	5179.986329	n/a
5180.786444	1.199994583	1	134	1	5	6	22	1	9	n/a	5181.186443	n/a
5181.986439	1.20000309	1	135	1	5	6	23	1	9	n/a	5182.386449	n/a
5183.186442	1.20001413	1	136	1	5	6	24	2	9	n/a	5183.586458	n/a
5184.386456	1.199987486	1	137	1	5	6	25	1	9	n/a	5184.786423	n/a
5185.586444	1.199964761	1	138	1	5	6	26	2	9	n/a	5185.986476	n/a
5186.786408	1.200048052	1	139	1	5	6	27	2	9	n/a	5187.186465	n/a
5187.986457	1.199984732	1	140	1	5	6	28	1	9	n/a	5188.386422	n/a
5189.186441	1.200003676	1	141	1	5	6	29	1	9	n/a	5189.58645	n/a
5190.386445	1.200015894	1	142	1	5	6	30	2	9	n/a	5190.78647	n/a
5191.586461	1.200004168	1	143	1	5	6	31	2	9	n/a	5191.986493	n/a
5192.786465	1.200010488	1	144	1	5	6	32	1	9	n/a	5193.186355	n/a
5193.986475	1.199991201	1	145	1	9	7	1	3	9	n/a	5194.386472	n/a
5195.186467	1.200005272	1	146	1	9	7	2	3	9	n/a	5195.586469	n/a
5196.386472	1.199994757	1	147	1	9	7	3	3	9	n/a	5196.786503	n/a
5197.586467	1.19999551	1	148	1	9	7	4	3	9	n/a	5197.986473	n/a
5198.786462	1.200021852	1	149	1	9	7	5	3	9	n/a	5199.186478	n/a
5199.986484	1.19999824	1	150	1	9	7	6	3	9	n/a	5200.386496	n/a
5201.186482	1.199990636	1	151	1	9	7	7	3	9	n/a	5201.586488	n/a
5202.386473	1.199997239	1	152	1	9	7	8	3	9	n/a	5202.786479	n/a
5203.58647	1.200023985	1	153	1	9	7	9	3	9	n/a	5203.986479	n/a
5204.786494	1.200011416	1	154	1	9	7	10	3	9	n/a	5205.186476	n/a
5205.986506	1.199994519	1	155	1	9	7	11	3	9	n/a	5206.386548	n/a
5207.1865	1.199987296	1	156	1	9	7	12	3	9	n/a	5207.586478	n/a
5208.386487	1.200007021	1	157	1	9	7	13	3	9	n/a	5208.786484	n/a
5209.586494	1.200060099	1	158	1	9	7	14	3	9	n/a	5209.986492	n/a
5210.786555	1.199935035	1	159	1	9	7	15	3	9	n/a	5211.186489	n/a
5211.98649	1.199998275	1	160	1	9	7	16	3	9	n/a	5212.386532	n/a
5213.186488	1.200004931	1	161	1	7	8	1	2	9	n/a	5213.586538	n/a
5214.386493	1.199978481	1	162	1	7	8	2	1	9	n/a	5214.786491	n/a
5215.586471	1.20002197	1	163	1	7	8	3	1	9	n/a	5215.986499	n/a
5216.786493	1.200008939	1	164	1	7	8	4	2	9	n/a	5217.186498	n/a
5217.986502	1.200018539	1	165	1	7	8	5	2	9	n/a	5218.386497	n/a
5219.186521	1.19998747	1	166	1	7	8	6	2	9	n/a	5219.586481	n/a
5220.386508	1.199991233	1	167	1	7	8	7	1	9	n/a	5220.786501	n/a
5221.586499	1.199902779	1	168	1	7	8	8	2	9	n/a	5221.9865	n/a
5222.786402	1.200008528	1	169	1	7	8	9	1	9	n/a	5223.186423	n/a
5223.986411	1.200095739	1	170	1	7	8	10	1	9	n/a	5224.386512	n/a
5225.186506	1.200010259	1	171	1	7	8	11	2	9	n/a	5225.586531	n/a
5226.386517	1.199973056	1	172	1	7	8	12	2	9	n/a	5226.786519	n/a
5227.58649	1.200044223	1	173	1	7	8	13	2	9	n/a	5227.986518	n/a
5228.786534	1.199988796	1	174	1	7	8	14	2	9	n/a	5229.186506	n/a
5229.986523	1.200003578	1	175	1	7	8	15	1	9	n/a	5230.386523	n/a
5231.186526	1.199985375	1	176	1	7	8	16	2	9	n/a	5231.586509	n/a
5232.386512	1.200020163	1	177	1	7	8	17	1	9	n/a	5232.786538	n/a
5233.586532	1.200012652	1	178	1	7	8	18	1	9	n/a	5233.986515	n/a
5234.786545	1.200005928	1	179	1	7	8	19	1	9	n/a	5235.186551	n/a
5235.98655	1.199978388	1	180	1	7	8	20	1	9	n/a	5236.386541	n/a
5237.186529	1.200014714	1	181	1	7	8	21	2	9	n/a	5237.58654	n/a
5238.386544	1.200015638	1	182	1	7	8	22	1	9	n/a	5238.786554	n/a
5239.586559	1.199994558	1	183	1	7	8	23	1	9	n/a	5239.986562	n/a
5240.786554	1.199902679	1	184	1	7	8	24	2	9	n/a	5241.18655	n/a
5241.986456	1.200097278	1	185	1	7	8	25	1	9	n/a	5242.386553	n/a
5243.186554	1.200014985	1	186	1	7	8	26	2	9	n/a	5243.586556	n/a
5244.386569	1.199975235	1	187	1	7	8	27	1	9	n/a	5244.786562	n/a
5245.586544	1.200021839	1	188	1	7	8	28	2	9	n/a	5245.986536	n/a
5246.786566	1.199999595	1	189	1	7	8	29	2	9	n/a	5247.186568	n/a
5247.986565	1.200021252	1	190	1	7	8	30	1	9	n/a	5248.386556	n/a
5249.186587	1.199984372	1	191	1	7	8	31	1	9	n/a	5249.586587	n/a
5250.386571	1.199997591	1	192	1	7	8	32	1	9	n/a	5250.786569	n/a
5251.586569	1.199994397	1	193	1	9	9	1	3	9	n/a	5251.986573	n/a
5252.786563	1.200014615	1	194	1	9	9	2	3	9	n/a	5253.186443	n/a
5253.986578	1.200023815	1	195	1	9	9	3	3	9	n/a	5254.38655	n/a
5255.186601	1.199975899	1	196	1	9	9	4	3	9	n/a	5255.586563	n/a
5256.386577	1.199900659	1	197	1	9	9	5	3	9	n/a	5256.786566	n/a
5257.586478	1.200080543	1	198	1	9	9	6	3	9	n/a	5257.986579	n/a
5258.786559	1.200026049	1	199	1	9	9	7	3	9	n/a	5259.18657	n/a
5259.986585	1.199976167	1	200	1	9	9	8	3	9	n/a	5260.386558	n/a
5261.186561	1.200038437	1	201	1	9	9	9	3	9	n/a	5261.586517	n/a
5262.386599	1.199963633	1	202	1	9	9	10	3	9	n/a	5262.786554	n/a
5263.586563	1.199990449	1	203	1	9	9	11	3	9	n/a	5263.986634	n/a
5264.786553	1.200012292	1	204	1	9	9	12	3	9	n/a	5265.186502	n/a
5265.986566	1.200000525	1	205	1	9	9	13	3	9	n/a	5266.386635	n/a
5267.186566	1.200012002	1	206	1	9	9	14	3	9	n/a	5267.58663	n/a
5268.386578	1.200013484	1	207	1	9	9	15	3	9	n/a	5268.786575	n/a
5269.586592	1.19997724	1	208	1	9	9	16	3	9	n/a	5269.986581	n/a
