onset	duration	run_number	trial_number	att_task	bar_direction	bar_period	bar_step	stim_noise_ori	stim_stair_val	response_val	probe_time	reaction_time
108744.2581	1.2000007	4	1	1	9	1	1	3	n/a	n/a	n/a	n/a
108745.4581	1.2004159	4	2	1	9	1	2	3	n/a	n/a	n/a	n/a
108746.6585	1.2003626	4	3	1	9	1	3	3	n/a	n/a	n/a	n/a
108747.8589	1.2004977	4	4	1	9	1	4	3	n/a	n/a	n/a	n/a
108749.0594	1.2003181	4	5	1	9	1	5	3	n/a	n/a	n/a	n/a
108750.2597	1.2003807	4	6	1	9	1	6	3	n/a	n/a	n/a	n/a
108751.4601	1.2004394	4	7	1	9	1	7	3	n/a	n/a	n/a	n/a
108752.6605	1.2004593	4	8	1	9	1	8	3	n/a	n/a	n/a	n/a
108753.861	1.2003518	4	9	1	9	1	9	3	n/a	n/a	n/a	n/a
108755.0613	1.2004223	4	10	1	9	1	10	3	n/a	n/a	n/a	n/a
108756.2618	1.2004628	4	11	1	9	1	11	3	n/a	n/a	n/a	n/a
108757.4622	1.2003474	4	12	1	9	1	12	3	n/a	n/a	n/a	n/a
108758.6626	1.2004005	4	13	1	9	1	13	3	n/a	n/a	n/a	n/a
108759.863	1.2004259	4	14	1	9	1	14	3	n/a	n/a	n/a	n/a
108761.0634	1.2004418	4	15	1	9	1	15	3	n/a	n/a	n/a	n/a
108762.2638	1.2004325	4	16	1	9	1	16	3	n/a	n/a	n/a	n/a
108763.4643	1.2003212	4	17	1	1	2	1	1	7	n/a	108763.8645	n/a
108764.6646	1.2005115	4	18	1	1	2	2	2	7	1	108765.0648	0.4152296
108765.8651	1.2003343	4	19	1	1	2	3	2	7	1	108766.2652	0.4155984
108767.0654	1.2004465	4	20	1	1	2	4	1	6	0	108767.4656	0.4154277
108768.2659	1.2003827	4	21	1	1	2	5	1	7	1	108768.666	0.4093404
108769.4663	1.2003707	4	22	1	1	2	6	1	7	0	108769.8664	0.3169295
108770.6666	1.2004708	4	23	1	1	2	7	1	8	1	108771.0668	0.415715
108771.8671	1.2003637	4	24	1	1	2	8	1	8	1	108772.2672	0.5156758
108773.0675	1.2004092	4	25	1	1	2	9	2	8	1	108773.4676	0.4204464
108774.2679	1.2003841	4	26	1	1	2	10	1	7	1	108774.6681	0.3155394
108775.4683	1.2004294	4	27	1	1	2	11	2	7	1	108775.8684	0.315916
108776.6687	1.2004507	4	28	1	1	2	12	2	7	1	108777.0688	0.4163859
108777.8692	1.2004164	4	29	1	1	2	13	2	6	0	108778.2693	0.4183711
108779.0696	1.200358	4	30	1	1	2	14	1	7	1	108779.4697	0.5158732
108780.2699	1.2005157	4	31	1	1	2	15	2	7	1	108780.6701	0.4151178
108781.4704	1.2003127	4	32	1	1	2	16	2	7	1	108781.8704	0.4149919
108782.6708	1.2004655	4	33	1	1	2	17	1	6	1	108783.0709	0.4153299
108783.8712	1.2003065	4	34	1	1	2	18	2	6	1	108784.2713	0.3156463
108785.0715	1.2005332	4	35	1	1	2	19	1	6	1	108785.4717	0.5145522
108786.2721	1.2003276	4	36	1	1	2	20	1	5	1	108786.6722	0.5154685
108787.4724	1.2004502	4	37	1	1	2	21	2	5	1	108787.8725	0.5148237
108788.6728	1.2003918	4	38	1	1	2	22	1	5	1	108789.0729	0.5149881
108789.8732	1.2003757	4	39	1	1	2	23	2	4	1	108790.2733	0.615044
108791.0736	1.2005235	4	40	1	1	2	24	1	4	0	108791.4737	0.5153527
108792.2741	1.2003549	4	41	1	1	2	25	1	5	1	108792.6743	0.6153445
108793.4745	1.2003459	4	42	1	1	2	26	2	5	1	108793.8746	0.6147379
108794.6748	1.2005086	4	43	1	1	2	27	1	5	1	108795.075	0.615225
108795.8753	1.2003084	4	44	1	1	2	28	2	4	0	108796.2754	0.7148149
108797.0757	1.2004615	4	45	1	1	2	29	2	5	1	108797.4758	0.7147647
108798.2761	1.2003648	4	46	1	1	2	30	2	5	n/a	108798.6762	n/a
108799.4765	1.2004005	4	47	1	1	2	31	2	5	n/a	108799.8766	n/a
108800.6769	1.2004647	4	48	1	1	2	32	1	5	n/a	108801.077	n/a
108801.8773	1.2004033	4	49	1	9	3	1	3	n/a	n/a	n/a	n/a
108803.0777	1.2004212	4	50	1	9	3	2	3	n/a	n/a	n/a	n/a
108804.2782	1.2003539	4	51	1	9	3	3	3	n/a	n/a	n/a	n/a
108805.4785	1.2004052	4	52	1	9	3	4	3	n/a	n/a	n/a	n/a
108806.6789	1.200431	4	53	1	9	3	5	3	n/a	n/a	n/a	n/a
108807.8794	1.2003536	4	54	1	9	3	6	3	n/a	n/a	n/a	n/a
108809.0797	1.2004927	4	55	1	9	3	7	3	n/a	n/a	n/a	n/a
108810.2802	1.2003781	4	56	1	9	3	8	3	n/a	n/a	n/a	n/a
108811.4806	1.2004056	4	57	1	9	3	9	3	n/a	n/a	n/a	n/a
108812.681	1.2003655	4	58	1	9	3	10	3	n/a	n/a	n/a	n/a
108813.8814	1.2004828	4	59	1	9	3	11	3	n/a	n/a	n/a	n/a
108815.0818	1.2003307	4	60	1	9	3	12	3	n/a	n/a	n/a	n/a
108816.2822	1.2004417	4	61	1	9	3	13	3	n/a	n/a	n/a	n/a
108817.4826	1.2004493	4	62	1	9	3	14	3	n/a	n/a	n/a	n/a
108818.6831	1.200419	4	63	1	9	3	15	3	n/a	n/a	n/a	n/a
108819.8835	1.2003404	4	64	1	9	3	16	3	n/a	n/a	n/a	n/a
108821.0838	1.2004105	4	65	1	3	4	1	1	5	0	108821.484	0.4151857
108822.2842	1.2004226	4	66	1	3	4	2	1	6	1	108822.6844	0.5148966
108823.4846	1.2004114	4	67	1	3	4	3	1	6	1	108823.8848	0.5166237
108824.6851	1.2004096	4	68	1	3	4	4	1	6	1	108825.0852	0.5161518
108825.8855	1.2004518	4	69	1	3	4	5	1	5	1	108826.2856	0.5176521
108827.0859	1.2003598	4	70	1	3	4	6	2	5	1	108827.4861	0.5169572
108828.2863	1.2004074	4	71	1	3	4	7	2	5	1	108828.6865	0.5162447
108829.4867	1.2003911	4	72	1	3	4	8	2	4	0	108829.8869	0.5163809
108830.6871	1.2004758	4	73	1	3	4	9	1	5	1	108831.0873	0.6168495
108831.8876	1.200426	4	74	1	3	4	10	1	5	1	108832.2876	0.6167303
108833.088	1.2002766	4	75	1	3	4	11	1	5	0	108833.4881	0.5188468
108834.2883	1.200517	4	76	1	3	4	12	1	6	1	108834.6885	0.4165629
108835.4888	1.200391	4	77	1	3	4	13	2	6	0	108835.8889	0.5169583
108836.6892	1.2003872	4	78	1	3	4	14	2	7	1	108837.0893	0.4163149
108837.8896	1.2004476	4	79	1	3	4	15	2	7	1	108838.2897	0.4162962
108839.09	1.2003666	4	80	1	3	4	16	1	7	1	108839.4901	0.416461
108840.2904	1.2003676	4	81	1	3	4	17	2	6	1	108840.6906	0.5160076
108841.4907	1.2004548	4	82	1	3	4	18	2	6	1	108841.8909	0.6165463
108842.6912	1.2003809	4	83	1	3	4	19	1	6	1	108843.0913	0.5170289
108843.8916	1.2004062	4	84	1	3	4	20	2	5	1	108844.2918	0.516542
108845.092	1.2004376	4	85	1	3	4	21	1	5	1	108845.4922	0.4161325
108846.2924	1.2004075	4	86	1	3	4	22	2	5	1	108846.6925	0.517034
108847.4928	1.2004817	4	87	1	3	4	23	1	4	1	108847.893	0.5170171
108848.6933	1.2003395	4	88	1	3	4	24	2	4	1	108849.0934	0.6165395
108849.8936	1.2004505	4	89	1	3	4	25	2	4	1	108850.2939	0.5166642
108851.0941	1.2004126	4	90	1	3	4	26	2	3	1	108851.4942	0.5159516
108852.2945	1.2003618	4	91	1	3	4	27	2	3	0	108852.6946	0.5173705
108853.4949	1.2004589	4	92	1	3	4	28	2	4	1	108853.8951	0.7165306
108854.6953	1.2003554	4	93	1	3	4	29	2	4	1	108855.0954	0.6165728
108855.8957	1.2004692	4	94	1	3	4	30	1	4	1	108856.2958	0.6164329
108857.0962	1.2003525	4	95	1	3	4	31	2	3	1	108857.4962	0.6161733
108858.2965	1.2004192	4	96	1	3	4	32	1	3	1	108858.6966	0.6145763
108859.4969	1.200329	4	97	1	9	5	1	3	n/a	n/a	n/a	n/a
108860.6973	1.2005624	4	98	1	9	5	2	3	n/a	n/a	n/a	n/a
108861.8978	1.2003541	4	99	1	9	5	3	3	n/a	n/a	n/a	n/a
108863.0982	1.2003707	4	100	1	9	5	4	3	n/a	n/a	n/a	n/a
108864.2985	1.2004456	4	101	1	9	5	5	3	n/a	n/a	n/a	n/a
108865.499	1.2003796	4	102	1	9	5	6	3	n/a	n/a	n/a	n/a
108866.6994	1.2004041	4	103	1	9	5	7	3	n/a	n/a	n/a	n/a
108867.8998	1.2003862	4	104	1	9	5	8	3	n/a	n/a	n/a	n/a
108869.1002	1.2003979	4	105	1	9	5	9	3	n/a	n/a	n/a	n/a
108870.3006	1.2004416	4	106	1	9	5	10	3	n/a	n/a	n/a	n/a
108871.501	1.2004719	4	107	1	9	5	11	3	n/a	n/a	n/a	n/a
108872.7015	1.2003444	4	108	1	9	5	12	3	n/a	n/a	n/a	n/a
108873.9018	1.200493	4	109	1	9	5	13	3	n/a	n/a	n/a	n/a
108875.1023	1.200326	4	110	1	9	5	14	3	n/a	n/a	n/a	n/a
108876.3026	1.2004893	4	111	1	9	5	15	3	n/a	n/a	n/a	n/a
108877.5031	1.2003793	4	112	1	9	5	16	3	n/a	n/a	n/a	n/a
108878.7035	1.2003639	4	113	1	5	6	1	1	3	0	108879.1036	0.5129482
108879.9039	1.2004117	4	114	1	5	6	2	2	4	1	108880.3041	0.5141221
108881.1043	1.2004022	4	115	1	5	6	3	1	4	1	108881.5044	0.5145007
108882.3047	1.2004458	4	116	1	5	6	4	2	4	0	108882.7048	0.5147182
108883.5051	1.2003858	4	117	1	5	6	5	1	5	1	108883.9052	0.5141163
108884.7055	1.2003906	4	118	1	5	6	6	2	5	n/a	108885.1057	n/a
108885.9059	1.2004719	4	119	1	5	6	7	2	5	1	108886.3061	0.5145858
108887.1064	1.2003526	4	120	1	5	6	8	2	5	0	108887.5065	0.6154412
108888.3067	1.20872	4	121	1	5	6	9	2	6	1	108888.7069	0.7231902
108889.5154	1.2004743	4	122	1	5	6	10	1	6	1	108889.9156	0.5148258
108890.7159	1.2003751	4	123	1	5	6	11	1	6	1	108891.1161	0.5149015
108891.9163	1.2004283	4	124	1	5	6	12	2	5	0	108892.3164	0.4150405
108893.1167	1.2004163	4	125	1	5	6	13	1	6	1	108893.5168	0.4154452
108894.3171	1.2003477	4	126	1	5	6	14	2	6	0	108894.7173	0.4157019
108895.5175	1.2004299	4	127	1	5	6	15	2	7	1	108895.9178	0.61524
108896.7179	1.2003553	4	128	1	5	6	16	2	7	1	108897.1182	0.5142677
108897.9183	1.2004689	4	129	1	5	6	17	1	7	1	108898.3184	0.4148699
108899.1187	1.2004114	4	130	1	5	6	18	1	6	0	108899.5189	0.4150203
108900.3192	1.2004505	4	131	1	5	6	19	1	7	1	108900.7193	0.4152874
108901.5196	1.2004233	4	132	1	5	6	20	1	7	1	108901.9197	0.4148871
108902.72	1.2003481	4	133	1	5	6	21	1	7	1	108903.1201	0.6156925
108903.9204	1.2004531	4	134	1	5	6	22	1	6	n/a	108904.3205	n/a
108905.1208	1.2003703	4	135	1	5	6	23	1	6	1	108905.5209	0.4145116
108906.3212	1.2004011	4	136	1	5	6	24	2	6	1	108906.7213	0.6158719
108907.5216	1.2004808	4	137	1	5	6	25	1	6	n/a	108907.9217	n/a
108908.7221	1.2003817	4	138	1	5	6	26	1	6	1	108909.1222	0.6157211
108909.9225	1.2003659	4	139	1	5	6	27	2	5	1	108910.3226	0.6154201
108911.1228	1.2004094	4	140	1	5	6	28	1	5	1	108911.523	0.5147791
108912.3232	1.2004489	4	141	1	5	6	29	2	5	1	108912.7234	0.5149001
108913.5237	1.200337	4	142	1	5	6	30	2	4	1	108913.9238	0.5154242
108914.724	1.2004418	4	143	1	5	6	31	2	4	1	108915.1242	0.6148956
108915.9245	1.2004594	4	144	1	5	6	32	2	4	1	108916.3246	0.6135264
108917.1249	1.2003228	4	145	1	9	7	1	3	n/a	n/a	n/a	n/a
108918.3252	1.2004479	4	146	1	9	7	2	3	n/a	n/a	n/a	n/a
108919.5257	1.2004351	4	147	1	9	7	3	3	n/a	n/a	n/a	n/a
108920.7261	1.2004431	4	148	1	9	7	4	3	n/a	n/a	n/a	n/a
108921.9266	1.2003928	4	149	1	9	7	5	3	n/a	n/a	n/a	n/a
108923.127	1.2004033	4	150	1	9	7	6	3	n/a	n/a	n/a	n/a
108924.3274	1.2004133	4	151	1	9	7	7	3	n/a	n/a	n/a	n/a
108925.5278	1.2004688	4	152	1	9	7	8	3	n/a	n/a	n/a	n/a
108926.7282	1.200302	4	153	1	9	7	9	3	n/a	n/a	n/a	n/a
108927.9286	1.2005009	4	154	1	9	7	10	3	n/a	n/a	n/a	n/a
108929.1291	1.2003203	4	155	1	9	7	11	3	n/a	n/a	n/a	n/a
108930.3294	1.2003791	4	156	1	9	7	12	3	n/a	n/a	n/a	n/a
108931.5298	1.2004429	4	157	1	9	7	13	3	n/a	n/a	n/a	n/a
108932.7302	1.2004015	4	158	1	9	7	14	3	n/a	n/a	n/a	n/a
108933.9306	1.2004574	4	159	1	9	7	15	3	n/a	n/a	n/a	n/a
108935.1311	1.2003711	4	160	1	9	7	16	3	n/a	n/a	n/a	n/a
108936.3314	1.2004378	4	161	1	7	8	1	2	3	1	108936.7315	0.5142099
108937.5319	1.2003828	4	162	1	7	8	2	2	3	0	108937.932	0.5152536
108938.7322	1.2004597	4	163	1	7	8	3	1	4	1	108939.1324	0.7165927
108939.9327	1.2004514	4	164	1	7	8	4	1	4	1	108940.3328	0.6173054
108941.1332	1.2003051	4	165	1	7	8	5	1	4	1	108941.5332	0.6164109
108942.3335	1.200366	4	166	1	7	8	6	2	3	1	108942.7336	0.5164866
108943.5338	1.2004568	4	167	1	7	8	7	1	3	1	108943.9341	0.6167548
108944.7343	1.2004706	4	168	1	7	8	8	1	3	n/a	108945.1344	n/a
108945.9348	1.2003423	4	169	1	7	8	9	1	3	0	108946.3347	0.4162962
108947.1351	1.2003828	4	170	1	7	8	10	2	4	0	108947.5353	0.617195
108948.3355	1.2004711	4	171	1	7	8	11	2	5	1	108948.7356	0.6169318
108949.536	1.2003715	4	172	1	7	8	12	2	5	1	108949.9361	0.7171932
108950.7363	1.2004108	4	173	1	7	8	13	2	5	1	108951.1365	0.5161272
108951.9367	1.2003877	4	174	1	7	8	14	2	4	1	108952.3368	0.6173736
108953.1371	1.2004203	4	175	1	7	8	15	2	4	1	108953.5373	0.6169238
108954.3375	1.2004775	4	176	1	7	8	16	2	4	1	108954.7377	0.5159542
108955.538	1.2003912	4	177	1	7	8	17	2	3	1	108955.9381	0.5161111
108956.7384	1.2004199	4	178	1	7	8	18	2	3	1	108957.1385	0.6171853
108957.9388	1.2003439	4	179	1	7	8	19	1	3	1	108958.339	0.716182
108959.1392	1.2004256	4	180	1	7	8	20	2	2	1	108959.5394	0.7162337
108960.3396	1.2004675	4	181	1	7	8	21	2	2	0	108960.7397	0.6174442
108961.5401	1.2003419	4	182	1	7	8	22	2	3	1	108961.9402	0.61751
108962.7404	1.2004638	4	183	1	7	8	23	2	3	n/a	108963.1405	n/a
108963.9409	1.2004224	4	184	1	7	8	24	2	3	1	108964.3409	0.7160206
108965.1413	1.2003533	4	185	1	7	8	25	1	3	1	108965.5413	0.5170954
108966.3416	1.2004314	4	186	1	7	8	26	2	2	0	108966.7418	0.4164709
108967.5421	1.2003683	4	187	1	7	8	27	2	3	0	108967.9422	0.4159472
108968.7424	1.2004551	4	188	1	7	8	28	1	4	0	108969.1426	0.716034
108969.9429	1.2004086	4	189	1	7	8	29	1	5	1	108970.3431	0.5163387
108971.1433	1.2003692	4	190	1	7	8	30	2	5	1	108971.5434	0.6171643
108972.3437	1.2004578	4	191	1	7	8	31	1	5	1	108972.7439	0.6155577
108973.5441	1.2003032	4	192	1	7	8	32	1	4	1	108973.9442	0.6147464
108974.7444	1.2005438	4	193	1	9	9	1	3	n/a	n/a	n/a	n/a
108975.945	1.2003679	4	194	1	9	9	2	3	n/a	n/a	n/a	n/a
108977.1454	1.2004205	4	195	1	9	9	3	3	n/a	n/a	n/a	n/a
108978.3458	1.2004187	4	196	1	9	9	4	3	n/a	n/a	n/a	n/a
108979.5462	1.2003903	4	197	1	9	9	5	3	n/a	n/a	n/a	n/a
108980.7466	1.2004376	4	198	1	9	9	6	3	n/a	n/a	n/a	n/a
108981.947	1.2003255	4	199	1	9	9	7	3	n/a	n/a	n/a	n/a
108983.1473	1.2004755	4	200	1	9	9	8	3	n/a	n/a	n/a	n/a
108984.3478	1.2003525	4	201	1	9	9	9	3	n/a	n/a	n/a	n/a
108985.5482	1.2004183	4	202	1	9	9	10	3	n/a	n/a	n/a	n/a
108986.7486	1.2004387	4	203	1	9	9	11	3	n/a	n/a	n/a	n/a
108987.949	1.2003805	4	204	1	9	9	12	3	n/a	n/a	n/a	n/a
108989.1494	1.2004472	4	205	1	9	9	13	3	n/a	n/a	n/a	n/a
108990.3499	1.2003331	4	206	1	9	9	14	3	n/a	n/a	n/a	n/a
108991.5502	1.2003828	4	207	1	9	9	15	3	n/a	n/a	n/a	n/a
108992.7506	1.2004095	4	208	1	9	9	16	3	n/a	n/a	n/a	n/a
