onset	duration	run_number	trial_number	att_task	bar_direction	bar_period	bar_step	stim_noise_ori	stim_stair_val	response_val	probe_time	reaction_time
1027670.963	1.1981555	2	1	1	9	1	1	3	6	n/a	1027671.362	n/a
1027672.161	1.1987846	2	2	1	9	1	2	3	6	n/a	1027672.561	n/a
1027673.36	1.198762	2	3	1	9	1	3	3	6	n/a	1027673.76	n/a
1027674.559	1.1988464	2	4	1	9	1	4	3	6	n/a	1027674.959	n/a
1027675.758	1.198789469	2	5	1	9	1	5	3	6	n/a	1027676.157	n/a
1027676.957	1.198797592	2	6	1	9	1	6	3	6	n/a	1027677.356	n/a
1027678.155	1.198784739	2	7	1	9	1	7	3	6	n/a	1027678.555	n/a
1027679.354	1.2070322	2	8	1	9	1	8	3	6	n/a	1027679.754	n/a
1027680.561	1.1988809	2	9	1	9	1	9	3	6	n/a	1027680.961	n/a
1027681.76	1.1987277	2	10	1	9	1	10	3	6	n/a	1027682.16	n/a
1027682.959	1.198881746	2	11	1	9	1	11	3	6	n/a	1027683.359	n/a
1027684.158	1.198799738	2	12	1	9	1	12	3	6	n/a	1027684.557	n/a
1027685.357	1.198778016	2	13	1	9	1	13	3	6	n/a	1027685.756	n/a
1027686.555	1.198804161	2	14	1	9	1	14	3	6	n/a	1027686.955	n/a
1027687.754	1.198764839	2	15	1	9	1	15	3	6	n/a	1027688.154	n/a
1027688.953	1.1987784	2	16	1	9	1	16	3	6	n/a	1027689.352	n/a
1027690.152	1.198847377	2	17	1	1	2	1	2	6	n/a	1027690.551	n/a
1027691.35	1.1987974	2	18	1	1	2	2	1	6	1	1027691.75	0.5195573155
1027692.549	1.198802238	2	19	1	1	2	3	1	6	1	1027692.949	0.7072924001
1027693.748	1.198736185	2	20	1	1	2	4	1	6	n/a	1027694.148	n/a
1027694.947	1.198801	2	21	1	1	2	5	1	6	n/a	1027695.346	n/a
1027696.146	1.19884833	2	22	1	1	2	6	1	6	n/a	1027696.545	n/a
1027697.344	1.198782669	2	23	1	1	2	7	2	6	n/a	1027697.744	n/a
1027698.543	1.198800454	2	24	1	1	2	8	1	6	0	1027698.943	0.7072959463
1027699.742	1.1988016	2	25	1	1	2	9	2	7	0	1027700.142	0.7080696999
1027700.941	1.198636746	2	26	1	1	2	10	2	9	0	1027701.34	0.5174526541
1027702.139	1.198953923	2	27	1	1	2	11	1	9	0	1027702.539	0.707482062
1027703.338	1.198754077	2	28	1	1	2	12	1	11	0	1027703.738	0.6142126999
1027704.537	1.198832977	2	29	1	1	2	13	2	12	0	1027704.937	0.6237309
1027705.736	1.198771223	2	30	1	1	2	14	1	13	0	1027706.136	0.6119743158
1027706.935	1.1988015	2	31	1	1	2	15	2	14	0	1027707.334	0.6115469467
1027708.134	1.1986989	2	32	1	1	2	16	2	14	n/a	1027708.533	n/a
1027709.332	1.198919038	2	33	1	1	2	17	1	14	n/a	1027709.732	n/a
1027710.531	1.198792	2	34	1	1	2	18	1	14	0	1027710.931	0.7238147
1027711.73	1.198799361	2	35	1	1	2	19	2	15	0	1027712.13	0.6338008001
1027712.929	1.1988064	2	36	1	1	2	20	1	15	0	1027713.328	0.7212579
1027714.128	1.198792069	2	37	1	1	2	21	2	15	0	1027714.527	0.5332834463
1027715.326	1.198788338	2	38	1	1	2	22	2	15	n/a	1027715.726	n/a
1027716.525	1.198789054	2	39	1	1	2	23	1	15	n/a	1027716.925	n/a
1027717.724	1.198799215	2	40	1	1	2	24	1	15	n/a	1027718.124	n/a
1027718.923	1.198808231	2	41	1	1	2	25	1	15	n/a	1027719.322	n/a
1027720.122	1.198789962	2	42	1	1	2	26	1	15	n/a	1027720.521	n/a
1027721.32	1.198793777	2	43	1	1	2	27	2	15	n/a	1027721.72	n/a
1027722.519	1.198792977	2	44	1	1	2	28	1	15	n/a	1027722.919	n/a
1027723.718	1.207123577	2	45	1	1	2	29	2	15	n/a	1027724.118	n/a
1027724.925	1.19879007	2	46	1	1	2	30	1	15	n/a	1027725.325	n/a
1027726.124	1.198799031	2	47	1	1	2	31	2	15	n/a	1027726.523	n/a
1027727.323	1.198793746	2	48	1	1	2	32	1	15	n/a	1027727.722	n/a
1027728.521	1.198598054	2	49	1	9	3	1	3	15	n/a	1027728.921	n/a
1027729.72	1.198995707	2	50	1	9	3	2	3	15	n/a	1027730.12	n/a
1027730.919	1.198796962	2	51	1	9	3	3	3	15	n/a	1027731.319	n/a
1027732.118	1.198771031	2	52	1	9	3	4	3	15	n/a	1027732.517	n/a
1027733.317	1.198816177	2	53	1	9	3	5	3	15	n/a	1027733.716	n/a
1027734.515	1.198794869	2	54	1	9	3	6	3	15	n/a	1027734.915	n/a
1027735.714	1.198800169	2	55	1	9	3	7	3	15	n/a	1027736.114	n/a
1027736.913	1.198787685	2	56	1	9	3	8	3	15	n/a	1027737.313	n/a
1027738.112	1.198799307	2	57	1	9	3	9	3	15	n/a	1027738.511	n/a
1027739.311	1.198799669	2	58	1	9	3	10	3	15	n/a	1027739.71	n/a
1027740.509	1.198797477	2	59	1	9	3	11	3	15	n/a	1027740.909	n/a
1027741.708	1.198800754	2	60	1	9	3	12	3	15	n/a	1027742.108	n/a
1027742.907	1.198788262	2	61	1	9	3	13	3	15	n/a	1027743.307	n/a
1027744.106	1.198629231	2	62	1	9	3	14	3	15	n/a	1027744.505	n/a
1027745.304	1.198959846	2	63	1	9	3	15	3	15	n/a	1027745.704	n/a
1027746.503	1.198800592	2	64	1	9	3	16	3	15	n/a	1027746.903	n/a
1027747.702	1.198741562	2	65	1	3	4	1	1	15	n/a	1027748.102	n/a
1027748.901	1.198851753	2	66	1	3	4	2	2	15	n/a	1027749.301	n/a
1027750.1	1.198790985	2	67	1	3	4	3	1	15	n/a	1027750.499	n/a
1027751.299	1.198792662	2	68	1	3	4	4	1	15	n/a	1027751.698	n/a
1027752.497	1.198799277	2	69	1	3	4	5	1	15	n/a	1027752.897	n/a
1027753.696	1.198755023	2	70	1	3	4	6	2	15	n/a	1027754.096	n/a
1027754.895	1.198840854	2	71	1	3	4	7	2	15	n/a	1027755.295	n/a
1027756.094	1.198792477	2	72	1	3	4	8	2	15	n/a	1027756.493	n/a
1027757.293	1.198793077	2	73	1	3	4	9	1	15	n/a	1027757.692	n/a
1027758.491	1.198801646	2	74	1	3	4	10	1	15	n/a	1027758.891	n/a
1027759.69	1.198796185	2	75	1	3	4	11	2	15	n/a	1027760.09	n/a
1027760.889	1.198730562	2	76	1	3	4	12	2	15	n/a	1027761.289	n/a
1027762.088	1.198859023	2	77	1	3	4	13	1	15	n/a	1027762.487	n/a
1027763.287	1.198780777	2	78	1	3	4	14	2	15	n/a	1027763.686	n/a
1027764.485	1.1988056	2	79	1	3	4	15	1	15	n/a	1027764.885	n/a
1027765.684	1.1987995	2	80	1	3	4	16	1	15	n/a	1027766.084	n/a
1027766.883	1.1987548	2	81	1	3	4	17	2	15	n/a	1027767.283	n/a
1027768.082	1.198845869	2	82	1	3	4	18	2	15	n/a	1027768.481	n/a
1027769.281	1.198788723	2	83	1	3	4	19	2	15	n/a	1027769.68	n/a
1027770.479	1.198713108	2	84	1	3	4	20	2	15	n/a	1027770.879	n/a
1027771.678	1.1988643	2	85	1	3	4	21	2	15	n/a	1027772.078	n/a
1027772.877	1.198813369	2	86	1	3	4	22	2	15	n/a	1027773.277	n/a
1027774.076	1.198803315	2	87	1	3	4	23	2	15	n/a	1027774.475	n/a
1027775.275	1.198783477	2	88	1	3	4	24	2	15	n/a	1027775.674	n/a
1027776.473	1.198798123	2	89	1	3	4	25	2	15	n/a	1027776.873	n/a
1027777.672	1.198793485	2	90	1	3	4	26	1	15	n/a	1027778.072	n/a
1027778.871	1.198670831	2	91	1	3	4	27	1	15	n/a	1027779.271	n/a
1027780.07	1.198928315	2	92	1	3	4	28	2	15	n/a	1027780.469	n/a
1027781.268	1.198790869	2	93	1	3	4	29	2	15	n/a	1027781.668	n/a
1027782.467	1.198794354	2	94	1	3	4	30	2	15	n/a	1027782.867	n/a
1027783.666	1.198797423	2	95	1	3	4	31	2	15	n/a	1027784.066	n/a
1027784.865	1.198760639	2	96	1	3	4	32	1	15	n/a	1027785.264	n/a
1027786.064	1.1987708	2	97	1	9	5	1	3	15	n/a	1027786.463	n/a
1027787.262	1.198855707	2	98	1	9	5	2	3	15	n/a	1027787.662	n/a
1027788.461	1.198784693	2	99	1	9	5	3	3	15	n/a	1027788.861	n/a
1027789.66	1.1987942	2	100	1	9	5	4	3	15	n/a	1027790.06	n/a
1027790.859	1.1987723	2	101	1	9	5	5	3	15	n/a	1027791.258	n/a
1027792.058	1.1988263	2	102	1	9	5	6	3	15	n/a	1027792.457	n/a
1027793.256	1.1988048	2	103	1	9	5	7	3	15	n/a	1027793.656	n/a
1027794.455	1.198786369	2	104	1	9	5	8	3	15	n/a	1027794.855	n/a
1027795.654	1.198778931	2	105	1	9	5	9	3	15	n/a	1027796.054	n/a
1027796.853	1.198822338	2	106	1	9	5	10	3	15	n/a	1027797.252	n/a
1027798.052	1.198751362	2	107	1	9	5	11	3	15	n/a	1027798.451	n/a
1027799.25	1.198845277	2	108	1	9	5	12	3	15	n/a	1027799.65	n/a
1027800.449	1.198789592	2	109	1	9	5	13	3	15	n/a	1027800.849	n/a
1027801.648	1.198797384	2	110	1	9	5	14	3	15	n/a	1027802.048	n/a
1027802.847	1.198786431	2	111	1	9	5	15	3	15	n/a	1027803.246	n/a
1027804.046	1.198797408	2	112	1	9	5	16	3	15	n/a	1027804.445	n/a
1027805.244	1.198800385	2	113	1	5	6	1	2	15	n/a	1027805.644	n/a
1027806.443	1.198806177	2	114	1	5	6	2	2	15	n/a	1027806.843	n/a
1027807.642	1.198785385	2	115	1	5	6	3	2	15	n/a	1027808.042	n/a
1027808.841	1.198778862	2	116	1	5	6	4	2	15	n/a	1027809.24	n/a
1027810.04	1.1987276	2	117	1	5	6	5	2	15	n/a	1027810.439	n/a
1027811.238	1.1987991	2	118	1	5	6	6	2	15	n/a	1027811.638	n/a
1027812.437	1.1987957	2	119	1	5	6	7	1	15	n/a	1027812.837	n/a
1027813.636	1.198881561	2	120	1	5	6	8	2	15	n/a	1027814.036	n/a
1027814.835	1.198804639	2	121	1	5	6	9	2	15	n/a	1027815.234	n/a
1027816.034	1.1987805	2	122	1	5	6	10	2	15	n/a	1027816.433	n/a
1027817.232	1.198800407	2	123	1	5	6	11	1	15	n/a	1027817.632	n/a
1027818.431	1.198799431	2	124	1	5	6	12	2	15	n/a	1027818.831	n/a
1027819.63	1.198792231	2	125	1	5	6	13	1	15	n/a	1027820.03	n/a
1027820.829	1.198797138	2	126	1	5	6	14	1	15	n/a	1027821.228	n/a
1027822.028	1.198629693	2	127	1	5	6	15	2	15	n/a	1027822.427	n/a
1027823.226	1.198957123	2	128	1	5	6	16	2	15	n/a	1027823.626	n/a
1027824.425	1.198722177	2	129	1	5	6	17	2	15	n/a	1027824.825	n/a
1027825.624	1.198874853	2	130	1	5	6	18	1	15	n/a	1027826.024	n/a
1027826.823	1.1987896	2	131	1	5	6	19	1	15	n/a	1027827.222	n/a
1027828.022	1.198794262	2	132	1	5	6	20	2	15	n/a	1027828.421	n/a
1027829.22	1.198778585	2	133	1	5	6	21	1	15	n/a	1027829.62	n/a
1027830.419	1.1987864	2	134	1	5	6	22	2	15	n/a	1027830.819	n/a
1027831.618	1.198831153	2	135	1	5	6	23	1	15	n/a	1027832.017	n/a
1027832.817	1.198789015	2	136	1	5	6	24	1	15	n/a	1027833.216	n/a
1027834.016	1.198639131	2	137	1	5	6	25	1	15	n/a	1027834.415	n/a
1027835.214	1.198948	2	138	1	5	6	26	2	15	n/a	1027835.614	n/a
1027836.413	1.1987426	2	139	1	5	6	27	1	15	n/a	1027836.813	n/a
1027837.612	1.1988092	2	140	1	5	6	28	1	15	n/a	1027838.011	n/a
1027838.811	1.198841592	2	141	1	5	6	29	1	15	n/a	1027839.21	n/a
1027840.009	1.198787008	2	142	1	5	6	30	2	15	n/a	1027840.409	n/a
1027841.208	1.198804	2	143	1	5	6	31	2	15	n/a	1027841.608	n/a
1027842.407	1.1987897	2	144	1	5	6	32	2	15	n/a	1027842.807	n/a
1027843.606	1.198816	2	145	1	9	7	1	3	15	n/a	1027844.005	n/a
1027844.805	1.198781307	2	146	1	9	7	2	3	15	n/a	1027845.204	n/a
1027846.003	1.198640693	2	147	1	9	7	3	3	15	n/a	1027846.403	n/a
1027847.202	1.198954877	2	148	1	9	7	4	3	15	n/a	1027847.602	n/a
1027848.401	1.198792423	2	149	1	9	7	5	3	15	n/a	1027848.801	n/a
1027849.6	1.1987193	2	150	1	9	7	6	3	15	n/a	1027849.999	n/a
1027850.799	1.198871777	2	151	1	9	7	7	3	15	n/a	1027851.198	n/a
1027851.997	1.198804085	2	152	1	9	7	8	3	15	n/a	1027852.397	n/a
1027853.196	1.198789739	2	153	1	9	7	9	3	15	n/a	1027853.596	n/a
1027854.395	1.198799484	2	154	1	9	7	10	3	15	n/a	1027854.795	n/a
1027855.594	1.198776616	2	155	1	9	7	11	3	15	n/a	1027855.993	n/a
1027856.793	1.198811354	2	156	1	9	7	12	3	15	n/a	1027857.192	n/a
1027857.991	1.198617446	2	157	1	9	7	13	3	15	n/a	1027858.391	n/a
1027859.19	1.1989624	2	158	1	9	7	14	3	15	n/a	1027859.59	n/a
1027860.389	1.198812322	2	159	1	9	7	15	3	15	n/a	1027860.789	n/a
1027861.588	1.198793047	2	160	1	9	7	16	3	15	n/a	1027861.987	n/a
1027862.787	1.198791938	2	161	1	7	8	1	2	15	n/a	1027863.186	n/a
1027863.985	1.198800385	2	162	1	7	8	2	2	15	n/a	1027864.385	n/a
1027865.184	1.198901808	2	163	1	7	8	3	2	15	n/a	1027865.584	n/a
1027866.383	1.1986571	2	164	1	7	8	4	2	15	n/a	1027866.783	n/a
1027867.582	1.198826292	2	165	1	7	8	5	2	15	n/a	1027867.981	n/a
1027868.781	1.198717308	2	166	1	7	8	6	2	15	n/a	1027869.18	n/a
1027869.979	1.1987436	2	167	1	7	8	7	2	15	n/a	1027870.379	n/a
1027871.178	1.1989941	2	168	1	7	8	8	1	15	n/a	1027871.578	n/a
1027872.377	1.1985954	2	169	1	7	8	9	2	15	n/a	1027872.777	n/a
1027873.576	1.198923	2	170	1	7	8	10	1	15	n/a	1027873.975	n/a
1027874.775	1.1986793	2	171	1	7	8	11	1	15	n/a	1027875.174	n/a
1027875.973	1.1987885	2	172	1	7	8	12	2	15	n/a	1027876.373	n/a
1027877.172	1.198924092	2	173	1	7	8	13	1	15	n/a	1027877.572	n/a
1027878.371	1.198758508	2	174	1	7	8	14	2	15	n/a	1027878.771	n/a
1027879.57	1.198832784	2	175	1	7	8	15	1	15	n/a	1027879.969	n/a
1027880.769	1.198769116	2	176	1	7	8	16	2	15	n/a	1027881.168	n/a
1027881.967	1.1986919	2	177	1	7	8	17	2	15	n/a	1027882.367	n/a
1027883.166	1.198934484	2	178	1	7	8	18	2	15	n/a	1027883.566	n/a
1027884.365	1.198793454	2	179	1	7	8	19	1	15	n/a	1027884.765	n/a
1027885.564	1.198796662	2	180	1	7	8	20	1	15	n/a	1027885.963	n/a
1027886.763	1.198799038	2	181	1	7	8	21	2	15	n/a	1027887.162	n/a
1027887.961	1.198777662	2	182	1	7	8	22	2	15	n/a	1027888.361	n/a
1027889.16	1.198810184	2	183	1	7	8	23	1	15	n/a	1027889.56	n/a
1027890.359	1.198769015	2	184	1	7	8	24	2	15	n/a	1027890.759	n/a
1027891.558	1.1987896	2	185	1	7	8	25	2	15	n/a	1027891.957	n/a
1027892.756	1.198825	2	186	1	7	8	26	1	15	n/a	1027893.156	n/a
1027893.955	1.198800676	2	187	1	7	8	27	2	15	n/a	1027894.355	n/a
1027895.154	1.198798239	2	188	1	7	8	28	2	15	n/a	1027895.554	n/a
1027896.353	1.1987958	2	189	1	7	8	29	1	15	n/a	1027896.752	n/a
1027897.552	1.198793746	2	190	1	7	8	30	2	15	n/a	1027897.951	n/a
1027898.75	1.198831339	2	191	1	7	8	31	1	15	n/a	1027899.15	n/a
1027899.949	1.1987256	2	192	1	7	8	32	2	15	n/a	1027900.349	n/a
1027901.148	1.1987872	2	193	1	9	9	1	3	15	n/a	1027901.548	n/a
1027902.347	1.1988343	2	194	1	9	9	2	3	15	n/a	1027902.747	n/a
1027903.546	1.1988021	2	195	1	9	9	3	3	15	n/a	1027903.945	n/a
1027904.744	1.1987946	2	196	1	9	9	4	3	15	n/a	1027905.144	n/a
1027905.943	1.198795785	2	197	1	9	9	5	3	15	n/a	1027906.343	n/a
1027907.142	1.198686415	2	198	1	9	9	6	3	15	n/a	1027907.542	n/a
1027908.341	1.198907269	2	199	1	9	9	7	3	15	n/a	1027908.74	n/a
1027909.54	1.198792623	2	200	1	9	9	8	3	15	n/a	1027909.939	n/a
1027910.738	1.198765008	2	201	1	9	9	9	3	15	n/a	1027911.138	n/a
1027911.937	1.198822	2	202	1	9	9	10	3	15	n/a	1027912.337	n/a
1027913.136	1.198799154	2	203	1	9	9	11	3	15	n/a	1027913.536	n/a
1027914.335	1.198796831	2	204	1	9	9	12	3	15	n/a	1027914.734	n/a
1027915.534	1.198795015	2	205	1	9	9	13	3	15	n/a	1027915.933	n/a
1027916.732	1.198795077	2	206	1	9	9	14	3	15	n/a	1027917.132	n/a
1027917.931	1.198794169	2	207	1	9	9	15	3	15	n/a	1027918.331	n/a
1027919.13	1.198769454	2	208	1	9	9	16	3	15	n/a	1027919.53	n/a
