onset	duration	run_number	trial_number	att_task	bar_direction	bar_period	bar_step	stim_noise_ori	stim_stair_val	response_val	probe_time	reaction_time
3708.187408	1.1899025	1	1	1	9	1	1	3	9	n/a	n/a	n/a
3709.385531	1.1907205	1	2	1	9	1	2	3	9	n/a	n/a	n/a
3710.584357	1.1905413	1	3	1	9	1	3	3	9	n/a	n/a	n/a
3711.783159	1.1905344	1	4	1	9	1	4	3	9	n/a	n/a	n/a
3712.982896	1.1904339	1	5	1	9	1	5	3	9	n/a	n/a	n/a
3714.180854	1.1904461	1	6	1	9	1	6	3	9	n/a	n/a	n/a
3715.379423	1.1906679	1	7	1	9	1	7	3	9	n/a	n/a	n/a
3716.578258	1.1904829	1	8	1	9	1	8	3	9	n/a	n/a	n/a
3717.777006	1.1905226	1	9	1	9	1	9	3	9	n/a	n/a	n/a
3718.975865	1.190485	1	10	1	9	1	10	3	9	n/a	n/a	n/a
3720.174634	1.1905238	1	11	1	9	1	11	3	9	n/a	n/a	n/a
3721.373378	1.1905082	1	12	1	9	1	12	3	9	n/a	n/a	n/a
3722.5722	1.1905754	1	13	1	9	1	13	3	9	n/a	n/a	n/a
3723.770957	1.1906367	1	14	1	9	1	14	3	9	n/a	n/a	n/a
3724.969887	1.1904419	1	15	1	9	1	15	3	9	n/a	n/a	n/a
3726.168601	1.1906158	1	16	1	9	1	16	3	9	n/a	n/a	n/a
3727.418482	1.297596	1	17	1	1	2	1	1	9	1	3727.758944	0.7747253
3728.724362	1.3487214	1	18	1	1	2	2	2	9	1	3729.065892	0.6164089
3730.081333	1.1905462	1	19	1	1	2	3	2	8	1	3730.42287	0.5413948
3731.280126	1.19052	1	20	1	1	2	4	1	8	1	3731.621677	0.5914541
3732.478934	1.2654379	1	21	1	1	2	5	1	8	1	3732.821492	0.6079398
3733.752655	1.2820576	1	22	1	1	2	6	1	7	1	3734.094256	0.6245416
3735.04304	1.1904777	1	23	1	1	2	7	2	7	1	3735.384393	0.5583018
3736.241789	1.1905315	1	24	1	1	2	8	1	7	1	3736.583239	0.6181548
3737.440673	1.4152204	1	25	1	1	2	9	2	6	1	3737.781986	0.5915857
3738.864201	1.2488046	1	26	1	1	2	10	2	6	1	3739.222201	0.5514431
3740.121281	1.1905459	1	27	1	1	2	11	2	6	1	3740.46275	0.5834092
3741.320072	1.3486795	1	28	1	1	2	12	2	5	1	3741.661426	0.6494414
3742.677022	1.3070423	1	29	1	1	2	13	1	5	1	3743.018422	0.649583
3743.992391	1.3153484	1	30	1	1	2	14	2	5	1	3744.333701	0.6661322
3745.316089	1.2237713	1	31	1	1	2	15	1	4	1	3745.657402	0.574508
3746.548138	1.3486937	1	32	1	1	2	16	2	4	1	3746.889607	0.6326722
3747.905115	1.2987593	1	33	1	1	2	17	1	4	1	3748.24647	0.6661608
3749.21214	1.2571279	1	34	1	1	2	18	1	3	1	3749.553522	0.6743566
3750.477519	1.3320783	1	35	1	1	2	19	2	4	0	3750.818873	0.6998114
3751.817855	1.307073	1	36	1	1	2	20	2	4	1	3752.159236	0.6827337
3753.13321	1.2072083	1	37	1	1	2	21	1	5	0	3753.474559	0.7330543
3754.348646	1.3570458	1	38	1	1	2	22	1	5	1	3754.690024	0.7243868
3755.713953	1.3154059	1	39	1	1	2	23	2	5	1	3756.055322	0.791022
3757.03763	1.3153767	1	40	1	1	2	24	2	4	1	3757.379011	0.7409723
3758.36136	1.2153849	1	41	1	1	2	25	2	4	1	3758.702651	0.8325832
3759.585069	1.2653551	1	42	1	1	2	26	1	4	1	3759.926503	0.9074282
3760.858791	1.3403273	1	43	1	1	2	27	2	3	1	3761.200153	0.9158609
3762.207421	1.2654713	1	44	1	1	2	28	2	3	n/a	3762.548817	n/a
3763.48117	1.2737514	1	45	1	1	2	29	2	3	n/a	3763.822543	n/a
3764.763218	1.3237005	1	46	1	1	2	30	1	3	n/a	3765.104565	n/a
3766.095212	1.2821194	1	47	1	1	2	31	2	3	n/a	3766.436645	n/a
3767.385583	1.2737874	1	48	1	1	2	32	2	3	n/a	3767.726936	n/a
3768.676455	1.1903177	1	49	1	9	3	1	3	3	n/a	n/a	n/a
3769.874956	1.1903594	1	50	1	9	3	2	3	3	n/a	n/a	n/a
3771.073569	1.1905	1	51	1	9	3	3	3	3	n/a	n/a	n/a
3772.272303	1.1905383	1	52	1	9	3	4	3	3	n/a	n/a	n/a
3773.471134	1.1905211	1	53	1	9	3	5	3	3	n/a	n/a	n/a
3774.669907	1.1905131	1	54	1	9	3	6	3	3	n/a	n/a	n/a
3775.868721	1.1906075	1	55	1	9	3	7	3	3	n/a	n/a	n/a
3777.067556	1.1904778	1	56	1	9	3	8	3	3	n/a	n/a	n/a
3778.266391	1.1904078	1	57	1	9	3	9	3	3	n/a	n/a	n/a
3779.465232	1.1903884	1	58	1	9	3	10	3	3	n/a	n/a	n/a
3780.663903	1.1905036	1	59	1	9	3	11	3	3	n/a	n/a	n/a
3781.862699	1.190602	1	60	1	9	3	12	3	3	n/a	n/a	n/a
3783.0615	1.1906143	1	61	1	9	3	13	3	3	n/a	n/a	n/a
3784.260301	1.1905158	1	62	1	9	3	14	3	3	n/a	n/a	n/a
3785.459122	1.1904568	1	63	1	9	3	15	3	3	n/a	n/a	n/a
3786.657917	1.1904658	1	64	1	9	3	16	3	3	n/a	n/a	n/a
3787.865602	1.3064489	1	65	1	3	4	1	2	3	1	3788.206397	0.3747574
3789.18035	1.2488262	1	66	1	3	4	2	1	4	0	3789.521719	0.2998037
3790.437406	1.2987504	1	67	1	3	4	3	1	5	0	3790.778869	0.4663274
3791.744428	1.3320374	1	68	1	3	4	4	1	5	1	3792.085809	0.6411319
3793.084745	1.2738063	1	69	1	3	4	5	1	5	1	3793.426214	0.7159683
3794.366893	1.2154112	1	70	1	3	4	6	2	4	1	3794.708186	0.6494626
3795.590587	1.2904202	1	71	1	3	4	7	2	5	0	3795.931994	0.7410699
3796.889256	1.2572076	1	72	1	3	4	8	2	5	1	3797.230654	0.7160245
3798.154684	1.30706	1	73	1	3	4	9	2	5	1	3798.496049	0.7826464
3799.470034	1.4153011	1	74	1	3	4	10	1	4	1	3799.886341	0.674399
3800.89362	1.2987006	1	75	1	3	4	11	1	4	1	3801.235038	0.7243309
3802.20065	1.3237	1	76	1	3	4	12	2	4	1	3802.542015	0.7076767
3803.53263	1.298717	1	77	1	3	4	13	1	3	1	3803.874	0.7076837
3804.839673	1.340344	1	78	1	3	4	14	2	3	1	3805.180972	0.6827914
3806.188293	1.3404624	1	79	1	3	4	15	2	3	1	3806.529734	0.699284
3807.536918	1.3404399	1	80	1	3	4	16	1	2	1	3807.878309	0.6910545
3808.885627	1.3986329	1	81	1	3	4	17	1	2	1	3809.22695	0.7992778
3810.292514	1.3403292	1	82	1	3	4	18	2	2	1	3810.633924	0.6660349
3811.641141	1.4152954	1	83	1	3	4	19	2	2	1	3811.982545	0.7327541
3813.06475	1.3320628	1	84	1	3	4	20	1	2	1	3813.406152	0.5661278
3814.405089	1.3320211	1	85	1	3	4	21	1	2	1	3814.746509	0.6660009
3815.745366	1.3820104	1	86	1	3	4	22	1	2	1	3816.086794	0.790905
3817.135626	1.4652513	1	87	1	3	4	23	2	2	1	3817.477014	0.9742056
3818.609168	1.1905009	1	88	1	3	4	24	2	2	1	3818.950527	0.7992596
3819.807963	1.2237321	1	89	1	3	4	25	2	2	0	3820.149346	0.8409826
3821.040057	1.1905017	1	90	1	3	4	26	2	3	n/a	3821.381532	n/a
3822.238836	1.2155389	1	91	1	3	4	27	1	3	n/a	3822.580223	n/a
3823.462655	1.1905229	1	92	1	3	4	28	1	3	n/a	3823.804085	n/a
3824.661456	1.3403371	1	93	1	3	4	29	1	3	n/a	3825.002769	n/a
3826.010088	1.3070664	1	94	1	3	4	30	1	3	n/a	3826.351464	n/a
3827.325432	1.1905318	1	95	1	3	4	31	2	3	n/a	3827.666786	n/a
3828.524222	1.2154906	1	96	1	3	4	32	1	3	n/a	3828.865601	n/a
3829.756453	1.1903746	1	97	1	9	5	1	3	3	n/a	n/a	n/a
3830.955107	1.1904793	1	98	1	9	5	2	3	3	n/a	n/a	n/a
3832.153912	1.1905304	1	99	1	9	5	3	3	3	n/a	n/a	n/a
3833.352663	1.1906044	1	100	1	9	5	4	3	3	n/a	n/a	n/a
3834.551472	1.1905356	1	101	1	9	5	5	3	3	n/a	n/a	n/a
3835.750304	1.1904977	1	102	1	9	5	6	3	3	n/a	n/a	n/a
3836.949089	1.1905078	1	103	1	9	5	7	3	3	n/a	n/a	n/a
3838.1479	1.1905359	1	104	1	9	5	8	3	3	n/a	n/a	n/a
3839.346675	1.1905241	1	105	1	9	5	9	3	3	n/a	n/a	n/a
3840.545492	1.1904938	1	106	1	9	5	10	3	3	n/a	n/a	n/a
3841.744325	1.1904658	1	107	1	9	5	11	3	3	n/a	n/a	n/a
3842.943081	1.1905049	1	108	1	9	5	12	3	3	n/a	n/a	n/a
3844.141864	1.1905522	1	109	1	9	5	13	3	3	n/a	n/a	n/a
3845.340692	1.1905426	1	110	1	9	5	14	3	3	n/a	n/a	n/a
3846.539443	1.1905487	1	111	1	9	5	15	3	3	n/a	n/a	n/a
3847.738255	1.1905237	1	112	1	9	5	16	3	3	n/a	n/a	n/a
3848.953738	1.3486775	1	113	1	5	6	1	1	3	1	3849.295068	0.7493201
3850.310673	1.223826	1	114	1	5	6	2	2	4	0	3850.652045	0.6494693
3851.542766	1.273769	1	115	1	5	6	3	1	4	1	3851.88418	0.6661417
3852.824816	1.2737825	1	116	1	5	6	4	1	4	1	3853.16618	0.7243323
3854.106933	1.2487146	1	117	1	5	6	5	1	5	0	3854.448222	0.6498313
3855.363993	1.2237609	1	118	1	5	6	6	1	5	1	3855.705322	0.5912014
3856.596082	1.315329	1	119	1	5	6	7	2	6	0	3856.937393	0.6997968
3857.919706	1.3070423	1	120	1	5	6	8	1	6	1	3858.261083	0.6244485
3859.235086	1.4069894	1	121	1	5	6	9	2	6	1	3859.576432	0.5828505
3860.650314	1.3153468	1	122	1	5	6	10	2	5	1	3860.991678	0.5745498
3861.97395	1.190534	1	123	1	5	6	11	1	6	0	3862.315336	0.5665016
3863.172905	1.3069579	1	124	1	5	6	12	1	6	1	3863.514138	0.6078113
3864.488117	1.3320348	1	125	1	5	6	13	1	6	1	3864.829455	0.6910989
3865.828449	1.3403549	1	126	1	5	6	14	1	5	1	3866.169808	0.6660927
3867.177114	1.2904094	1	127	1	5	6	15	2	5	1	3867.518467	0.5911298
3868.475838	1.3570111	1	128	1	5	6	16	1	5	1	3868.817146	0.599498
3869.841153	1.2320991	1	129	1	5	6	17	1	4	1	3870.182443	0.5495405
3871.081507	1.3237441	1	130	1	5	6	18	2	4	1	3871.422884	0.6993881
3872.413501	1.3570217	1	131	1	5	6	19	2	4	1	3872.75488	0.7243596
3873.778815	1.2904011	1	132	1	5	6	20	2	3	1	3874.120168	0.7077392
3875.077496	1.373678	1	133	1	5	6	21	1	3	1	3875.418981	0.7575669
3876.459455	1.3486861	1	134	1	5	6	22	2	3	1	3876.800817	0.8408911
3877.816384	1.3237425	1	135	1	5	6	23	2	4	0	3878.157795	0.8826013
3879.148407	1.3653406	1	136	1	5	6	24	2	4	1	3879.489796	0.8325677
3880.522088	1.2820318	1	137	1	5	6	25	1	4	1	3880.863383	0.8492486
3881.812385	1.3070692	1	138	1	5	6	26	2	3	1	3882.153785	0.9075377
3883.12777	1.3154127	1	139	1	5	6	27	2	3	1	3883.469133	0.9742423
3884.451419	1.1904973	1	140	1	5	6	28	1	3	n/a	3884.792875	n/a
3885.650333	1.2986718	1	141	1	5	6	29	2	3	n/a	3885.991601	n/a
3886.957293	1.381943	1	142	1	5	6	30	1	3	n/a	3887.298624	n/a
3888.347522	1.2820867	1	143	1	5	6	31	2	3	n/a	3888.688918	n/a
3889.637904	1.1904677	1	144	1	5	6	32	1	3	1	3889.979266	0.8075477
3890.845037	1.1904812	1	145	1	9	7	1	3	3	n/a	n/a	n/a
3892.043801	1.1905014	1	146	1	9	7	2	3	3	n/a	n/a	n/a
3893.242637	1.1904769	1	147	1	9	7	3	3	3	n/a	n/a	n/a
3894.441434	1.1905234	1	148	1	9	7	4	3	3	n/a	n/a	n/a
3895.640201	1.1904902	1	149	1	9	7	5	3	3	n/a	n/a	n/a
3896.838965	1.1905304	1	150	1	9	7	6	3	3	n/a	n/a	n/a
3898.037761	1.1905159	1	151	1	9	7	7	3	3	n/a	n/a	n/a
3899.236614	1.1905216	1	152	1	9	7	8	3	3	n/a	n/a	n/a
3900.435362	1.1905117	1	153	1	9	7	9	3	3	n/a	n/a	n/a
3901.634164	1.1905805	1	154	1	9	7	10	3	3	n/a	n/a	n/a
3902.832973	1.1905573	1	155	1	9	7	11	3	3	n/a	n/a	n/a
3904.031756	1.190524	1	156	1	9	7	12	3	3	n/a	n/a	n/a
3905.230565	1.1906683	1	157	1	9	7	13	3	3	n/a	n/a	n/a
3906.42939	1.1906215	1	158	1	9	7	14	3	3	n/a	n/a	n/a
3907.628309	1.1904378	1	159	1	9	7	15	3	3	n/a	n/a	n/a
3908.82696	1.1905265	1	160	1	9	7	16	3	3	n/a	n/a	n/a
3910.025773	1.1904441	1	161	1	7	8	1	1	2	1	3910.367139	0.7659633
3911.224545	1.3320239	1	162	1	7	8	2	2	2	1	3911.56591	0.7244346
3912.564843	1.3570451	1	163	1	7	8	3	1	2	1	3912.906389	0.5493494
3913.930211	1.190466	1	164	1	7	8	4	2	3	0	3914.271506	0.6577781
3915.128961	1.2155157	1	165	1	7	8	5	1	3	1	3915.4704	0.5744261
3916.352732	1.1905504	1	166	1	7	8	6	1	3	n/a	3916.694131	n/a
3917.55153	1.1905474	1	167	1	7	8	7	2	4	0	3917.892905	0.5079101
3918.750377	1.1905322	1	168	1	7	8	8	2	4	1	3919.091695	0.5078983
3919.949132	1.3153921	1	169	1	7	8	9	2	5	0	3920.290511	0.4829221
3921.272794	1.3404222	1	170	1	7	8	10	1	5	1	3921.614166	0.6827192
3922.62142	1.3653792	1	171	1	7	8	11	1	6	0	3922.962789	0.5496501
3923.995088	1.423662	1	172	1	7	8	12	1	7	0	3924.336452	0.5911555
3925.427009	1.3569863	1	173	1	7	8	13	2	7	1	3925.768397	0.641095
3926.792371	1.4568266	1	174	1	7	8	14	1	7	1	3927.133641	0.6161882
3928.257471	1.3155193	1	175	1	7	8	15	2	6	1	3928.598829	0.5911742
3929.581208	1.2903398	1	176	1	7	8	16	2	6	1	3929.922519	0.6660761
3930.879832	1.423617	1	177	1	7	8	17	1	6	1	3931.229521	0.6912986
3932.311731	1.3320391	1	178	1	7	8	18	2	5	1	3932.653104	0.6577382
3933.652069	1.3736345	1	179	1	7	8	19	1	5	1	3933.993443	0.815894
3935.034036	1.3153483	1	180	1	7	8	20	2	5	1	3935.375388	0.7326524
3936.357697	1.3320429	1	181	1	7	8	21	2	4	1	3936.69905	0.8242505
3937.698013	1.3320506	1	182	1	7	8	22	2	4	n/a	3938.039431	n/a
3939.038296	1.2238536	1	183	1	7	8	23	2	4	n/a	3939.37967	n/a
3940.270412	1.3653463	1	184	1	7	8	24	2	5	0	3940.611786	0.8575514
3941.644053	1.3153491	1	185	1	7	8	25	1	5	1	3941.985381	0.7743233
3942.967711	1.1904943	1	186	1	7	8	26	2	5	n/a	3943.309084	n/a
3944.166512	1.1905579	1	187	1	7	8	27	2	5	n/a	3944.507893	n/a
3945.365304	1.2737775	1	188	1	7	8	28	2	6	0	3945.706751	0.0748824
3946.647408	1.1904937	1	189	1	7	8	29	2	7	0	3946.988717	0.5495337
3947.846165	1.3403184	1	190	1	7	8	30	2	7	n/a	3948.187521	n/a
3949.19482	1.3236974	1	191	1	7	8	31	2	7	n/a	3949.536258	n/a
3950.526798	1.3071577	1	192	1	7	8	32	1	8	0	3950.868169	0.6161093
3951.850664	1.1903483	1	193	1	9	9	1	3	8	n/a	n/a	n/a
3953.049245	1.1905171	1	194	1	9	9	2	3	8	n/a	n/a	n/a
3954.248022	1.1905516	1	195	1	9	9	3	3	8	n/a	n/a	n/a
3955.446848	1.1905179	1	196	1	9	9	4	3	8	n/a	n/a	n/a
3956.645634	1.1905485	1	197	1	9	9	5	3	8	n/a	n/a	n/a
3957.844435	1.1904923	1	198	1	9	9	6	3	8	n/a	n/a	n/a
3959.043237	1.1905697	1	199	1	9	9	7	3	8	n/a	n/a	n/a
3960.24203	1.1905442	1	200	1	9	9	8	3	8	n/a	n/a	n/a
3961.440858	1.1904971	1	201	1	9	9	9	3	8	n/a	n/a	n/a
3962.639627	1.1905189	1	202	1	9	9	10	3	8	n/a	n/a	n/a
3963.838437	1.1904998	1	203	1	9	9	11	3	8	n/a	n/a	n/a
3965.037234	1.1905373	1	204	1	9	9	12	3	8	n/a	n/a	n/a
3966.236062	1.1905237	1	205	1	9	9	13	3	8	n/a	n/a	n/a
3967.434801	1.1905402	1	206	1	9	9	14	3	8	n/a	n/a	n/a
3968.633733	1.1904045	1	207	1	9	9	15	3	8	n/a	n/a	n/a
3969.832412	1.1905175	1	208	1	9	9	16	3	8	n/a	n/a	n/a
