onset	duration	run_number	trial_number	att_task	bar_direction	bar_period	bar_step	stim_noise_ori	stim_stair_val	response_val	probe_time	reaction_time
2261.526728	1.3008643	1	1	1	9	1	1	3	9	n/a	n/a	n/a
2262.835696	1.2665782	1	2	1	9	1	2	3	9	n/a	n/a	n/a
2264.110537	1.2506335	1	3	1	9	1	3	3	9	n/a	n/a	n/a
2265.369729	1.2748967	1	4	1	9	1	4	3	9	n/a	n/a	n/a
2266.653536	1.2003138	1	5	1	9	1	5	3	9	n/a	n/a	n/a
2267.861634	1.2003226	1	6	1	9	1	6	3	9	n/a	n/a	n/a
2269.070114	1.1920558	1	7	1	9	1	7	3	9	n/a	n/a	n/a
2270.270441	1.1920639	1	8	1	9	1	8	3	9	n/a	n/a	n/a
2271.471237	1.1998729	1	9	1	9	1	9	3	9	n/a	n/a	n/a
2272.679442	1.192041	1	10	1	9	1	10	3	9	n/a	n/a	n/a
2273.879817	1.2002847	1	11	1	9	1	11	3	9	n/a	n/a	n/a
2275.088433	1.1919677	1	12	1	9	1	12	3	9	n/a	n/a	n/a
2276.288752	1.2253458	1	13	1	9	1	13	3	9	n/a	n/a	n/a
2277.522425	1.2420568	1	14	1	9	1	14	3	9	n/a	n/a	n/a
2278.772808	1.2670031	1	15	1	9	1	15	3	9	n/a	n/a	n/a
2280.048231	1.2419046	1	16	1	9	1	16	3	9	n/a	n/a	n/a
2281.341098	1.3577379	1	17	1	1	2	1	2	9	n/a	2281.773944	n/a
2282.707149	1.3589894	1	18	1	1	2	2	2	9	n/a	2283.09968	n/a
2284.074399	1.4002785	1	19	1	1	2	3	2	9	n/a	2284.483417	n/a
2285.483064	1.3502474	1	20	1	1	2	4	1	9	n/a	2285.892243	n/a
2286.841721	1.5340747	1	21	1	1	2	5	1	9	n/a	2287.292752	n/a
2288.383737	1.3758907	1	22	1	1	2	6	1	9	n/a	2288.809217	n/a
2289.767688	1.3835199	1	23	1	1	2	7	2	9	n/a	2290.192915	n/a
2291.159853	1.3751976	1	24	1	1	2	8	1	9	n/a	2291.584828	n/a
2292.543196	1.3755022	1	25	1	1	2	9	1	9	n/a	2292.935293	n/a
2293.927046	1.3339026	1	26	1	1	2	10	2	9	n/a	2294.310628	n/a
2295.268963	1.3840067	1	27	1	1	2	11	2	9	n/a	2295.69415	n/a
2296.661366	1.3587435	1	28	1	1	2	12	2	9	n/a	2297.053121	n/a
2298.028387	1.3835101	1	29	1	1	2	13	1	9	n/a	2298.436842	n/a
2299.420445	1.3834238	1	30	1	1	2	14	1	9	n/a	2299.837118	n/a
2300.812253	1.3919156	1	31	1	1	2	15	2	9	n/a	2301.228945	n/a
2302.212553	1.3503336	1	32	1	1	2	16	1	9	n/a	2302.62104	n/a
2303.571209	1.3839313	1	33	1	1	2	17	1	9	n/a	2303.971614	n/a
2304.963265	1.3424934	1	34	1	1	2	18	1	9	n/a	2305.363768	n/a
2306.313654	1.3588124	1	35	1	1	2	19	2	9	n/a	2306.713806	n/a
2307.680653	1.3253573	1	36	1	1	2	20	2	9	n/a	2308.064145	n/a
2309.014346	1.3673293	1	37	1	1	2	21	1	9	n/a	2309.423195	n/a
2310.389831	1.3257188	1	38	1	1	2	22	1	9	n/a	2310.781956	n/a
2311.723445	1.3091466	1	39	1	1	2	23	1	9	n/a	2312.131891	n/a
2313.040451	1.3420382	1	40	1	1	2	24	1	9	n/a	2313.440646	n/a
2314.390807	1.3921016	1	41	1	1	2	25	2	9	n/a	2314.791335	n/a
2315.791306	1.3919909	1	42	1	1	2	26	1	9	n/a	2316.208138	n/a
2317.191981	1.4334578	1	43	1	1	2	27	2	9	n/a	2317.608886	n/a
2318.633689	1.3504106	1	44	1	1	2	28	2	9	n/a	2319.034007	n/a
2319.992455	1.3836453	1	45	1	1	2	29	1	9	n/a	2320.40926	n/a
2321.384449	1.40047	1	46	1	1	2	30	2	9	n/a	2321.784876	n/a
2322.793235	1.3504866	1	47	1	1	2	31	1	9	n/a	2323.201738	n/a
2324.151858	1.3753683	1	48	1	1	2	32	2	9	n/a	2324.552431	n/a
2325.544237	1.2675471	1	49	1	9	3	1	3	9	n/a	n/a	n/a
2326.819686	1.2754405	1	50	1	9	3	2	3	9	n/a	n/a	n/a
2328.102924	1.200342	1	51	1	9	3	3	3	9	n/a	n/a	n/a
2329.311594	1.2003859	1	52	1	9	3	4	3	9	n/a	n/a	n/a
2330.520245	1.1924203	1	53	1	9	3	5	3	9	n/a	n/a	n/a
2331.720897	1.1916688	1	54	1	9	3	6	3	9	n/a	n/a	n/a
2332.920902	1.1920766	1	55	1	9	3	7	3	9	n/a	n/a	n/a
2334.121264	1.2004547	1	56	1	9	3	8	3	9	n/a	n/a	n/a
2335.330232	1.2418357	1	57	1	9	3	9	3	9	n/a	n/a	n/a
2336.58039	1.250235	1	58	1	9	3	10	3	9	n/a	n/a	n/a
2337.838928	1.2086848	1	59	1	9	3	11	3	9	n/a	n/a	n/a
2339.055962	1.1921604	1	60	1	9	3	12	3	9	n/a	n/a	n/a
2340.256276	1.1919787	1	61	1	9	3	13	3	9	n/a	n/a	n/a
2341.456778	1.1918056	1	62	1	9	3	14	3	9	n/a	n/a	n/a
2342.656971	1.2002704	1	63	1	9	3	15	3	9	n/a	n/a	n/a
2343.865614	1.1919467	1	64	1	9	3	16	3	9	n/a	n/a	n/a
2345.082685	1.4172803	1	65	1	3	4	1	2	9	n/a	2345.482657	n/a
2346.508146	1.3503012	1	66	1	3	4	2	2	9	n/a	2346.908038	n/a
2347.866839	1.3502121	1	67	1	3	4	3	1	9	n/a	2348.275141	n/a
2349.225366	1.5174795	1	68	1	3	4	4	2	9	n/a	2349.642344	n/a
2350.751134	1.4171563	1	69	1	3	4	5	2	9	n/a	2351.19288	n/a
2352.176294	1.3756674	1	70	1	3	4	6	1	9	n/a	2352.601306	n/a
2353.559898	1.3920963	1	71	1	3	4	7	1	9	n/a	2353.943686	n/a
2354.960356	1.3757033	1	72	1	3	4	8	1	9	n/a	2355.393855	n/a
2356.344378	1.3755164	1	73	1	3	4	9	2	9	n/a	2356.761044	n/a
2357.727797	1.3753159	1	74	1	3	4	10	1	9	n/a	2358.119915	n/a
2359.111456	1.3507322	1	75	1	3	4	11	2	9	n/a	2359.536653	n/a
2360.470127	1.3420177	1	76	1	3	4	12	2	9	n/a	2360.878719	n/a
2361.820523	1.4253712	1	77	1	3	4	13	1	9	n/a	2362.229333	n/a
2363.254245	1.4670544	1	78	1	3	4	14	2	9	n/a	2363.654309	n/a
2364.729986	1.4334511	1	79	1	3	4	15	2	9	n/a	2365.13812	n/a
2366.171763	1.3590941	1	80	1	3	4	16	1	9	n/a	2366.588869	n/a
2367.538769	1.3840584	1	81	1	3	4	17	2	9	n/a	2367.92256	n/a
2368.930782	1.5171046	1	82	1	3	4	18	1	9	n/a	2369.347619	n/a
2370.456548	1.3917059	1	83	1	3	4	19	2	9	n/a	2370.856853	n/a
2371.856685	1.391971	1	84	1	3	4	20	1	9	n/a	2372.273694	n/a
2373.257011	1.3837017	1	85	1	3	4	21	1	9	n/a	2373.699	n/a
2374.649095	1.3671114	1	86	1	3	4	22	2	9	n/a	2375.040891	n/a
2376.024764	1.3916498	1	87	1	3	4	23	2	9	n/a	2376.457922	n/a
2377.424747	1.3753899	1	88	1	3	4	24	1	9	n/a	2377.833233	n/a
2378.808506	1.3753942	1	89	1	3	4	25	1	9	n/a	2379.209012	n/a
2380.192561	1.3667367	1	90	1	3	4	26	2	9	n/a	2380.617747	n/a
2381.567601	1.3586696	1	91	1	3	4	27	2	9	n/a	2381.95942	n/a
2382.934598	1.3920802	1	92	1	3	4	28	2	9	n/a	2383.335088	n/a
2384.335163	1.416898	1	93	1	3	4	29	1	9	n/a	2384.760264	n/a
2385.760441	1.3508141	1	94	1	3	4	30	2	9	n/a	2386.152258	n/a
2387.119101	1.3336925	1	95	1	3	4	31	1	9	n/a	2387.527582	n/a
2388.461141	1.3425118	1	96	1	3	4	32	1	9	n/a	2388.861273	n/a
2389.820091	1.2338419	1	97	1	9	5	1	3	9	n/a	n/a	n/a
2391.061962	1.2089473	1	98	1	9	5	2	3	9	n/a	n/a	n/a
2392.278858	1.2086096	1	99	1	9	5	3	3	9	n/a	n/a	n/a
2393.495911	1.2419539	1	100	1	9	5	4	3	9	n/a	n/a	n/a
2394.74621	1.2671237	1	101	1	9	5	5	3	9	n/a	n/a	n/a
2396.021665	1.2669754	1	102	1	9	5	6	3	9	n/a	n/a	n/a
2397.296941	1.258804	1	103	1	9	5	7	3	9	n/a	n/a	n/a
2398.564059	1.2585013	1	104	1	9	5	8	3	9	n/a	n/a	n/a
2399.830885	1.2259396	1	105	1	9	5	9	3	9	n/a	n/a	n/a
2401.064965	1.2332876	1	106	1	9	5	10	3	9	n/a	n/a	n/a
2402.306628	1.2338004	1	107	1	9	5	11	3	9	n/a	n/a	n/a
2403.548891	1.2501066	1	108	1	9	5	12	3	9	n/a	n/a	n/a
2404.807303	1.2339088	1	109	1	9	5	13	3	9	n/a	n/a	n/a
2406.04967	1.2171381	1	110	1	9	5	14	3	9	n/a	n/a	n/a
2407.274618	1.233651	1	111	1	9	5	15	3	9	n/a	n/a	n/a
2408.516611	1.2170776	1	112	1	9	5	16	3	9	n/a	n/a	n/a
2409.775456	1.3170001	1	113	1	5	6	1	1	9	n/a	2410.134048	n/a
2411.100932	1.3335906	1	114	1	5	6	2	2	9	n/a	2411.475813	n/a
2412.442882	1.250139	1	115	1	5	6	3	2	9	n/a	2412.801446	n/a
2413.701362	1.3342166	1	116	1	5	6	4	2	9	n/a	2414.085202	n/a
2415.043554	1.3252149	1	117	1	5	6	5	1	9	n/a	2415.418833	n/a
2416.377081	1.3504448	1	118	1	5	6	6	1	9	n/a	2416.768913	n/a
2417.735808	1.3008755	1	119	1	5	6	7	1	9	n/a	2418.102958	n/a
2419.044936	1.3753695	1	120	1	5	6	8	1	9	n/a	2419.436725	n/a
2420.428752	1.2752452	1	121	1	5	6	9	1	9	n/a	2420.803701	n/a
2421.711905	1.3087678	1	122	1	5	6	10	1	9	n/a	2422.078712	n/a
2423.0291	1.2418354	1	123	1	5	6	11	1	9	n/a	2423.404018	n/a
2424.279285	1.2836665	1	124	1	5	6	12	2	9	n/a	2424.637725	n/a
2425.571914	1.2914051	1	125	1	5	6	13	1	9	n/a	2425.938095	n/a
2426.871641	1.3174095	1	126	1	5	6	14	1	9	n/a	2427.246766	n/a
2428.197157	1.3339608	1	127	1	5	6	15	2	9	n/a	2428.547134	n/a
2429.539496	1.2665678	1	128	1	5	6	16	1	9	n/a	2429.906265	n/a
2430.814511	1.2839788	1	129	1	5	6	17	1	9	n/a	2431.189567	n/a
2432.106488	1.2252732	1	130	1	5	6	18	2	9	n/a	2432.456538	n/a
2433.34009	1.3504601	1	131	1	5	6	19	2	9	n/a	2433.706875	n/a
2434.698994	1.35063	1	132	1	5	6	20	2	9	n/a	2435.07414	n/a
2436.057899	1.300131	1	133	1	5	6	21	2	9	n/a	2436.44134	n/a
2437.366303	1.3421015	1	134	1	5	6	22	1	9	n/a	2437.74171	n/a
2438.716744	1.3507166	1	135	1	5	6	23	2	9	n/a	2439.125455	n/a
2440.075285	1.3003785	1	136	1	5	6	24	2	9	n/a	2440.433755	n/a
2441.384006	1.283658	1	137	1	5	6	25	2	9	n/a	2441.734501	n/a
2442.676113	1.2752293	1	138	1	5	6	26	2	9	n/a	2443.042836	n/a
2443.959773	1.3004694	1	139	1	5	6	27	1	9	n/a	2444.343335	n/a
2445.268395	1.2169996	1	140	1	5	6	28	1	9	n/a	2445.618537	n/a
2446.493744	1.2173874	1	141	1	5	6	29	1	9	n/a	2446.843817	n/a
2447.719033	1.2337028	1	142	1	5	6	30	2	9	n/a	2448.085854	n/a
2448.961045	1.3086956	1	143	1	5	6	31	1	9	n/a	2449.328255	n/a
2450.278069	1.3421448	1	144	1	5	6	32	1	9	n/a	2450.62826	n/a
2451.636781	1.2503313	1	145	1	9	7	1	3	9	n/a	n/a	n/a
2452.895426	1.1920233	1	146	1	9	7	2	3	9	n/a	n/a	n/a
2454.09578	1.1920038	1	147	1	9	7	3	3	9	n/a	n/a	n/a
2455.296094	1.1920048	1	148	1	9	7	4	3	9	n/a	n/a	n/a
2456.496442	1.1924633	1	149	1	9	7	5	3	9	n/a	n/a	n/a
2457.696809	1.1919523	1	150	1	9	7	6	3	9	n/a	n/a	n/a
2458.897087	1.2257996	1	151	1	9	7	7	3	9	n/a	n/a	n/a
2460.130883	1.2089536	1	152	1	9	7	8	3	9	n/a	n/a	n/a
2461.347782	1.1919814	1	153	1	9	7	9	3	9	n/a	n/a	n/a
2462.54809	1.1924318	1	154	1	9	7	10	3	9	n/a	n/a	n/a
2463.748429	1.2507966	1	155	1	9	7	11	3	9	n/a	n/a	n/a
2465.007345	1.2422184	1	156	1	9	7	12	3	9	n/a	n/a	n/a
2466.257483	1.2419877	1	157	1	9	7	13	3	9	n/a	n/a	n/a
2467.508165	1.2338204	1	158	1	9	7	14	3	9	n/a	n/a	n/a
2468.74999	1.2089233	1	159	1	9	7	15	3	9	n/a	n/a	n/a
2469.966809	1.1919974	1	160	1	9	7	16	3	9	n/a	n/a	n/a
2471.192238	1.2088304	1	161	1	7	8	1	1	9	n/a	2471.542301	n/a
2472.409143	1.2671034	1	162	1	7	8	2	1	9	n/a	2472.750928	n/a
2473.684563	1.2835985	1	163	1	7	8	3	2	9	n/a	2474.051244	n/a
2474.976471	1.2753715	1	164	1	7	8	4	2	9	n/a	2475.318249	n/a
2476.260571	1.2499493	1	165	1	7	8	5	2	9	n/a	2476.610563	n/a
2477.51891	1.3420361	1	166	1	7	8	6	1	9	n/a	2477.885606	n/a
2478.869223	1.3086894	1	167	1	7	8	7	1	9	n/a	2479.219328	n/a
2480.186252	1.2174777	1	168	1	7	8	8	1	9	n/a	2480.553046	n/a
2481.41196	1.224959	1	169	1	7	8	9	1	9	n/a	2481.770027	n/a
2482.64525	1.2670333	1	170	1	7	8	10	1	9	n/a	2483.020398	n/a
2483.920617	1.4254217	1	171	1	7	8	11	1	9	n/a	2484.287895	n/a
2485.354454	1.3088265	1	172	1	7	8	12	1	9	n/a	2485.738167	n/a
2486.671387	1.300905	1	173	1	7	8	13	1	9	n/a	2487.063325	n/a
2487.980116	1.3258507	1	174	1	7	8	14	1	9	n/a	2488.346867	n/a
2489.313799	1.3086714	1	175	1	7	8	15	2	9	n/a	2489.68061	n/a
2490.630784	1.2753893	1	176	1	7	8	16	2	9	n/a	2490.980958	n/a
2491.91448	1.3838256	1	177	1	7	8	17	2	9	n/a	2492.289985	n/a
2493.306717	1.31728	1	178	1	7	8	18	2	9	n/a	2493.682057	n/a
2494.632334	1.3586822	1	179	1	7	8	19	1	9	n/a	2495.023917	n/a
2495.999155	1.3085134	1	180	1	7	8	20	1	9	n/a	2496.374494	n/a
2497.31603	1.3253089	1	181	1	7	8	21	2	9	n/a	2497.707767	n/a
2498.649741	1.2841563	1	182	1	7	8	22	2	9	n/a	2499.01649	n/a
2499.941728	1.3169758	1	183	1	7	8	23	2	9	n/a	2500.333556	n/a
2501.267037	1.2670348	1	184	1	7	8	24	1	9	n/a	2501.625522	n/a
2502.542372	1.4673433	1	185	1	7	8	25	2	9	n/a	2502.892518	n/a
2504.017898	1.191953	1	186	1	7	8	26	1	9	n/a	2504.35957	n/a
2505.21814	1.2420032	1	187	1	7	8	27	2	9	n/a	2505.568246	n/a
2506.468488	1.2419951	1	188	1	7	8	28	1	9	n/a	2506.810299	n/a
2507.718811	1.2003402	1	189	1	7	8	29	2	9	n/a	2508.060596	n/a
2508.927487	1.2170024	1	190	1	7	8	30	1	9	n/a	2509.285962	n/a
2510.152837	1.2419986	1	191	1	7	8	31	1	9	n/a	2510.502959	n/a
2511.403161	1.2337096	1	192	1	7	8	32	1	9	n/a	2511.744978	n/a
2512.653517	1.1920385	1	193	1	9	9	1	3	9	n/a	n/a	n/a
2513.853813	1.1920681	1	194	1	9	9	2	3	9	n/a	n/a	n/a
2515.05419	1.1920244	1	195	1	9	9	3	3	9	n/a	n/a	n/a
2516.254518	1.1920239	1	196	1	9	9	4	3	9	n/a	n/a	n/a
2517.454809	1.1920535	1	197	1	9	9	5	3	9	n/a	n/a	n/a
2518.655174	1.1920303	1	198	1	9	9	6	3	9	n/a	n/a	n/a
2519.855487	1.1920293	1	199	1	9	9	7	3	9	n/a	n/a	n/a
2521.055816	1.1920535	1	200	1	9	9	8	3	9	n/a	n/a	n/a
2522.256157	1.1920159	1	201	1	9	9	9	3	9	n/a	n/a	n/a
2523.45646	1.1921044	1	202	1	9	9	10	3	9	n/a	n/a	n/a
2524.656817	1.1920446	1	203	1	9	9	11	3	9	n/a	n/a	n/a
2525.857133	1.1921171	1	204	1	9	9	12	3	9	n/a	n/a	n/a
2527.057518	1.1919939	1	205	1	9	9	13	3	9	n/a	n/a	n/a
2528.257807	1.2004065	1	206	1	9	9	14	3	9	n/a	n/a	n/a
2529.466472	1.1920151	1	207	1	9	9	15	3	9	n/a	n/a	n/a
2530.666819	1.1920111	1	208	1	9	9	16	3	9	n/a	n/a	n/a
