onset	duration	run_number	trial_number	att_task	bar_direction	bar_period	bar_step	stim_noise_ori	stim_stair_val	response_val	probe_time	reaction_time
108095.1728	1.2063339	2	1	1	9	1	1	3	n/a	n/a	n/a	n/a
108096.3792	1.2004896	2	2	1	9	1	2	3	n/a	n/a	n/a	n/a
108097.5796	1.2004837	2	3	1	9	1	3	3	n/a	n/a	n/a	n/a
108098.7801	1.2002641	2	4	1	9	1	4	3	n/a	n/a	n/a	n/a
108099.9804	1.2004691	2	5	1	9	1	5	3	n/a	n/a	n/a	n/a
108101.1809	1.2003879	2	6	1	9	1	6	3	n/a	n/a	n/a	n/a
108102.3813	1.2004214	2	7	1	9	1	7	3	n/a	n/a	n/a	n/a
108103.5817	1.2003621	2	8	1	9	1	8	3	n/a	n/a	n/a	n/a
108104.782	1.2003872	2	9	1	9	1	9	3	n/a	n/a	n/a	n/a
108105.9824	1.2004507	2	10	1	9	1	10	3	n/a	n/a	n/a	n/a
108107.1829	1.2003749	2	11	1	9	1	11	3	n/a	n/a	n/a	n/a
108108.3832	1.2004314	2	12	1	9	1	12	3	n/a	n/a	n/a	n/a
108109.5837	1.2003822	2	13	1	9	1	13	3	n/a	n/a	n/a	n/a
108110.7841	1.2003918	2	14	1	9	1	14	3	n/a	n/a	n/a	n/a
108111.9845	1.2004285	2	15	1	9	1	15	3	n/a	n/a	n/a	n/a
108113.1849	1.2003865	2	16	1	9	1	16	3	n/a	n/a	n/a	n/a
108114.3853	1.2004504	2	17	1	1	2	1	2	8	1	108114.7855	0.6140648
108115.5857	1.200404	2	18	1	1	2	2	2	8	1	108115.9858	0.5148321
108116.7861	1.2003555	2	19	1	1	2	3	1	7	1	108117.1862	0.6098609
108117.9865	1.2005129	2	20	1	1	2	4	2	7	1	108118.3867	0.4169648
108119.187	1.2002837	2	21	1	1	2	5	1	7	1	108119.587	0.4153984
108120.3873	1.2004707	2	22	1	1	2	6	2	6	1	108120.7875	0.4151799
108121.5877	1.2004059	2	23	1	1	2	7	2	6	1	108121.9879	0.4180804
108122.7882	1.2003646	2	24	1	1	2	8	1	6	1	108123.1882	0.6161476
108123.9885	1.200478	2	25	1	1	2	9	1	5	1	108124.3887	0.5155608
108125.189	1.2003377	2	26	1	1	2	10	1	5	1	108125.5891	0.5179829
108126.3893	1.2004282	2	27	1	1	2	11	1	5	0	108126.7895	0.6155879
108127.5898	1.2003857	2	28	1	1	2	12	1	6	1	108127.9898	0.5154908
108128.7901	1.2004553	2	29	1	1	2	13	1	6	1	108129.1903	0.4149249
108129.9906	1.200358	2	30	1	1	2	14	2	6	1	108130.3908	0.4154289
108131.191	1.2004872	2	31	1	1	2	15	1	5	1	108131.5911	0.4148367
108132.3914	1.2003466	2	32	1	1	2	16	1	5	1	108132.7915	0.4153313
108133.5918	1.2003708	2	33	1	1	2	17	1	5	1	108133.992	0.5147171
108134.7922	1.2004895	2	34	1	1	2	18	1	4	1	108135.1924	0.5153679
108135.9927	1.2003417	2	35	1	1	2	19	1	4	1	108136.3927	0.5146585
108137.193	1.2004058	2	36	1	1	2	20	2	4	0	108137.5932	0.616062
108138.3934	1.2004318	2	37	1	1	2	21	1	5	0	108138.7935	0.7146856
108139.5938	1.2003705	2	38	1	1	2	22	2	6	1	108139.994	0.7146922
108140.7942	1.2003889	2	39	1	1	2	23	2	6	n/a	108141.1944	n/a
108141.9946	1.200469	2	40	1	1	2	24	1	6	n/a	108142.3947	n/a
108143.1951	1.200491	2	41	1	1	2	25	2	6	n/a	108143.5952	n/a
108144.3956	1.2003788	2	42	1	1	2	26	1	6	n/a	108144.7956	n/a
108145.5959	1.2003513	2	43	1	1	2	27	2	6	n/a	108145.9959	n/a
108146.7963	1.2004575	2	44	1	1	2	28	1	6	n/a	108147.1963	n/a
108147.9967	1.2002858	2	45	1	1	2	29	2	6	n/a	108148.3968	n/a
108149.197	1.2004695	2	46	1	1	2	30	2	6	0	108149.5972	-0.0851156
108150.3975	1.2003265	2	47	1	1	2	31	1	7	n/a	108150.7976	n/a
108151.5978	1.200463	2	48	1	1	2	32	2	7	1	108151.998	-0.08742899999
108152.7983	1.2004217	2	49	1	9	3	1	3	n/a	n/a	n/a	n/a
108153.9987	1.2003518	2	50	1	9	3	2	3	n/a	n/a	n/a	n/a
108155.1991	1.2004341	2	51	1	9	3	3	3	n/a	n/a	n/a	n/a
108156.3995	1.2003996	2	52	1	9	3	4	3	n/a	n/a	n/a	n/a
108157.5999	1.2004078	2	53	1	9	3	5	3	n/a	n/a	n/a	n/a
108158.8003	1.2004911	2	54	1	9	3	6	3	n/a	n/a	n/a	n/a
108160.0008	1.2002839	2	55	1	9	3	7	3	n/a	n/a	n/a	n/a
108161.2011	1.2004495	2	56	1	9	3	8	3	n/a	n/a	n/a	n/a
108162.4015	1.2004665	2	57	1	9	3	9	3	n/a	n/a	n/a	n/a
108163.602	1.2003416	2	58	1	9	3	10	3	n/a	n/a	n/a	n/a
108164.8023	1.2004754	2	59	1	9	3	11	3	n/a	n/a	n/a	n/a
108166.0028	1.2003411	2	60	1	9	3	12	3	n/a	n/a	n/a	n/a
108167.2031	1.2004729	2	61	1	9	3	13	3	n/a	n/a	n/a	n/a
108168.4036	1.2003472	2	62	1	9	3	14	3	n/a	n/a	n/a	n/a
108169.604	1.2004073	2	63	1	9	3	15	3	n/a	n/a	n/a	n/a
108170.8044	1.2004162	2	64	1	9	3	16	3	n/a	n/a	n/a	n/a
108172.0048	1.2003608	2	65	1	3	4	1	2	7	1	108172.4049	0.414036
108173.2052	1.2004035	2	66	1	3	4	2	2	7	0	108173.6054	0.5151368
108174.4056	1.2004905	2	67	1	3	4	3	2	8	1	108174.8058	0.3170697
108175.606	1.2003553	2	68	1	3	4	4	2	8	1	108176.0062	0.6162319
108176.8064	1.2003874	2	69	1	3	4	5	2	8	1	108177.2066	0.6168827
108178.0068	1.2004729	2	70	1	3	4	6	2	7	1	108178.4069	0.6167814
108179.2073	1.2003955	2	71	1	3	4	7	2	7	1	108179.6074	0.6163447
108180.4077	1.2004217	2	72	1	3	4	8	1	7	1	108180.8077	0.6160847
108181.6081	1.2003425	2	73	1	3	4	9	1	6	1	108182.0082	0.5167086
108182.8084	1.2004981	2	74	1	3	4	10	1	6	1	108183.2086	0.5160693
108184.0089	1.2004286	2	75	1	3	4	11	2	6	1	108184.409	0.5156079
108185.2093	1.2003196	2	76	1	3	4	12	1	5	1	108185.6094	0.5162847
108186.4097	1.2004006	2	77	1	3	4	13	1	5	1	108186.8098	0.6166461
108187.6101	1.2003847	2	78	1	3	4	14	2	5	1	108188.0102	0.6167167
108188.8105	1.2004122	2	79	1	3	4	15	2	4	1	108189.2107	0.5162898
108190.0109	1.2003854	2	80	1	3	4	16	2	4	1	108190.4111	0.6168951
108191.2113	1.2004961	2	81	1	3	4	17	2	4	n/a	108191.6115	n/a
108192.4117	1.2004274	2	82	1	3	4	18	1	4	0	108192.8119	-0.08358400001
108193.6122	1.2004034	2	83	1	3	4	19	1	5	1	108194.0123	0.7164188
108194.8126	1.2003906	2	84	1	3	4	20	2	5	n/a	108195.2127	n/a
108196.013	1.2003993	2	85	1	3	4	21	1	5	n/a	108196.4131	n/a
108197.2134	1.2004156	2	86	1	3	4	22	1	5	n/a	108197.6135	n/a
108198.4138	1.200334	2	87	1	3	4	23	1	5	n/a	108198.8139	n/a
108199.6141	1.2004667	2	88	1	3	4	24	2	5	n/a	108200.0143	n/a
108200.8146	1.20039	2	89	1	3	4	25	1	5	0	108201.2147	-0.0836363
108202.015	1.2003855	2	90	1	3	4	26	1	6	1	108202.4151	-0.08365280001
108203.2154	1.2004501	2	91	1	3	4	27	2	6	1	108203.6156	0.61696
108204.4158	1.2003759	2	92	1	3	4	28	2	6	1	108204.8159	0.6170016
108205.6162	1.2004771	2	93	1	3	4	29	2	5	1	108206.0164	0.6165096
108206.8167	1.2002711	2	94	1	3	4	30	2	5	1	108207.2168	0.5164292
108208.0169	1.2004434	2	95	1	3	4	31	1	5	1	108208.4172	0.6155821
108209.2174	1.2004651	2	96	1	3	4	32	2	4	1	108209.6175	0.6148359
108210.4178	1.2003659	2	97	1	9	5	1	3	n/a	n/a	n/a	n/a
108211.6182	1.2003824	2	98	1	9	5	2	3	n/a	n/a	n/a	n/a
108212.8186	1.2004788	2	99	1	9	5	3	3	n/a	n/a	n/a	n/a
108214.0191	1.2004195	2	100	1	9	5	4	3	n/a	n/a	n/a	n/a
108215.2195	1.2003976	2	101	1	9	5	5	3	n/a	n/a	n/a	n/a
108216.4199	1.2003601	2	102	1	9	5	6	3	n/a	n/a	n/a	n/a
108217.6202	1.2003941	2	103	1	9	5	7	3	n/a	n/a	n/a	n/a
108218.8206	1.2004337	2	104	1	9	5	8	3	n/a	n/a	n/a	n/a
108220.0211	1.2004478	2	105	1	9	5	9	3	n/a	n/a	n/a	n/a
108221.2215	1.2003666	2	106	1	9	5	10	3	n/a	n/a	n/a	n/a
108222.4219	1.200394	2	107	1	9	5	11	3	n/a	n/a	n/a	n/a
108223.6223	1.2005105	2	108	1	9	5	12	3	n/a	n/a	n/a	n/a
108224.8228	1.2003168	2	109	1	9	5	13	3	n/a	n/a	n/a	n/a
108226.0231	1.2004432	2	110	1	9	5	14	3	n/a	n/a	n/a	n/a
108227.2236	1.2003855	2	111	1	9	5	15	3	n/a	n/a	n/a	n/a
108228.4239	1.200388	2	112	1	9	5	16	3	n/a	n/a	n/a	n/a
108229.6243	1.2004409	2	113	1	5	6	1	2	4	1	108230.0245	0.6135885
108230.8248	1.2003885	2	114	1	5	6	2	1	4	0	108231.2249	0.7156841
108232.0252	1.2004268	2	115	1	5	6	3	1	5	1	108232.4253	0.7145716
108233.2256	1.2004266	2	116	1	5	6	4	2	5	1	108233.6257	0.6153241
108234.426	1.2003953	2	117	1	5	6	5	1	5	1	108234.8261	0.5142315
108235.6264	1.2003708	2	118	1	5	6	6	2	4	1	108236.0265	0.6154266
108236.8268	1.2003869	2	119	1	5	6	7	2	4	1	108237.2269	0.6150352
108238.0272	1.2004267	2	120	1	5	6	8	1	4	1	108238.4272	0.4153133
108239.2276	1.2004016	2	121	1	5	6	9	2	3	0	108239.6277	0.5149006
108240.428	1.2003969	2	122	1	5	6	10	1	4	1	108240.8282	0.5145135
108241.6284	1.2004229	2	123	1	5	6	11	2	4	1	108242.0287	0.5147033
108242.8288	1.2004052	2	124	1	5	6	12	2	4	1	108243.229	0.6157674
108244.0292	1.2004298	2	125	1	5	6	13	2	3	n/a	108244.4294	n/a
108245.2296	1.200431	2	126	1	5	6	14	1	3	n/a	108245.6298	n/a
108246.4301	1.2003613	2	127	1	5	6	15	2	3	0	108246.8302	-0.08441930001
108247.6304	1.2003815	2	128	1	5	6	16	2	4	1	108248.0306	0.5147429
108248.8308	1.2004475	2	129	1	5	6	17	2	4	1	108249.231	0.3153101
108250.0313	1.2004617	2	130	1	5	6	18	2	4	1	108250.4314	0.3146705
108251.2317	1.2003104	2	131	1	5	6	19	2	3	1	108251.6318	0.5147061
108252.432	1.2004887	2	132	1	5	6	20	2	3	0	108252.8322	0.3150487
108253.6325	1.200409	2	133	1	5	6	21	2	4	1	108254.0327	0.3156174
108254.8329	1.2003526	2	134	1	5	6	22	1	4	0	108255.233	0.3155939
108256.0333	1.2004401	2	135	1	5	6	23	2	5	0	108256.4334	0.4147874
108257.2337	1.2004243	2	136	1	5	6	24	1	6	0	108257.6338	0.3158733
108258.4342	1.200404	2	137	1	5	6	25	1	7	0	108258.8342	0.3150782
108259.6346	1.2003497	2	138	1	5	6	26	1	8	1	108260.0347	0.4148212
108260.8349	1.2004022	2	139	1	5	6	27	2	8	1	108261.2351	0.414585
108262.0353	1.2004199	2	140	1	5	6	28	1	8	1	108262.4355	0.4150715
108263.2357	1.2004304	2	141	1	5	6	29	1	7	0	108263.6359	0.4150906
108264.4362	1.2004052	2	142	1	5	6	30	1	8	0	108264.8363	0.514598
108265.6366	1.2003978	2	143	1	5	6	31	1	9	1	108266.0367	0.5139421
108266.837	1.2004554	2	144	1	5	6	32	1	9	1	108267.2371	0.4127917
108268.0374	1.2003305	2	145	1	9	7	1	3	n/a	n/a	n/a	n/a
108269.2378	1.2004344	2	146	1	9	7	2	3	n/a	n/a	n/a	n/a
108270.4382	1.2004577	2	147	1	9	7	3	3	n/a	n/a	n/a	n/a
108271.6386	1.2003335	2	148	1	9	7	4	3	n/a	n/a	n/a	n/a
108272.839	1.2004007	2	149	1	9	7	5	3	n/a	n/a	n/a	n/a
108274.0394	1.2004283	2	150	1	9	7	6	3	n/a	n/a	n/a	n/a
108275.2398	1.2003822	2	151	1	9	7	7	3	n/a	n/a	n/a	n/a
108276.4402	1.2004713	2	152	1	9	7	8	3	n/a	n/a	n/a	n/a
108277.6407	1.2003535	2	153	1	9	7	9	3	n/a	n/a	n/a	n/a
108278.841	1.2005969	2	154	1	9	7	10	3	n/a	n/a	n/a	n/a
108280.0416	1.2002245	2	155	1	9	7	11	3	n/a	n/a	n/a	n/a
108281.2418	1.2003894	2	156	1	9	7	12	3	n/a	n/a	n/a	n/a
108282.4422	1.2005104	2	157	1	9	7	13	3	n/a	n/a	n/a	n/a
108283.6427	1.2003901	2	158	1	9	7	14	3	n/a	n/a	n/a	n/a
108284.8431	1.2003424	2	159	1	9	7	15	3	n/a	n/a	n/a	n/a
108286.0435	1.2004357	2	160	1	9	7	16	3	n/a	n/a	n/a	n/a
108287.2439	1.2004143	2	161	1	7	8	1	2	9	1	108287.644	0.3151036
108288.4443	1.200402	2	162	1	7	8	2	2	8	0	108288.8445	0.4151671
108289.6447	1.200406	2	163	1	7	8	3	1	9	0	108290.0449	0.4156927
108290.8451	1.2003796	2	164	1	7	8	4	2	10	1	108291.2453	0.4158872
108292.0455	1.2004382	2	165	1	7	8	5	1	10	1	108292.4457	0.4152828
108293.2459	1.2004497	2	166	1	7	8	6	2	10	1	108293.6461	0.4164888
108294.4464	1.200438	2	167	1	7	8	7	2	9	1	108294.8465	0.4162684
108295.6468	1.2003322	2	168	1	7	8	8	1	9	1	108296.0469	0.4157413
108296.8472	1.2004663	2	169	1	7	8	9	1	9	0	108297.2473	0.3169731
108298.0476	1.2003502	2	170	1	7	8	10	1	10	1	108298.4477	0.4167001
108299.248	1.2004103	2	171	1	7	8	11	2	10	1	108299.6481	0.416038
108300.4484	1.2003599	2	172	1	7	8	12	1	10	1	108300.8486	0.4155042
108301.6487	1.2004983	2	173	1	7	8	13	2	9	1	108302.0489	0.5158948
108302.8492	1.2003933	2	174	1	7	8	14	1	9	1	108303.2495	0.4160718
108304.0496	1.200379	2	175	1	7	8	15	1	9	1	108304.4498	0.4159635
108305.25	1.2004477	2	176	1	7	8	16	1	8	1	108305.6502	0.5168802
108306.4505	1.2003876	2	177	1	7	8	17	1	8	1	108306.8507	0.6170154
108307.6509	1.2004451	2	178	1	7	8	18	2	8	1	108308.051	0.4172576
108308.8513	1.2003887	2	179	1	7	8	19	2	7	1	108309.2514	0.4166471
108310.0517	1.200378	2	180	1	7	8	20	2	7	1	108310.4518	0.4157075
108311.2521	1.2004419	2	181	1	7	8	21	1	7	1	108311.6522	0.6173032
108312.4525	1.2003418	2	182	1	7	8	22	2	6	1	108312.8527	0.6175042
108313.6528	1.2004216	2	183	1	7	8	23	1	6	1	108314.053	0.5170573
108314.8533	1.2005243	2	184	1	7	8	24	1	6	1	108315.2534	0.5164152
108316.0538	1.2003154	2	185	1	7	8	25	2	5	1	108316.4538	0.6169522
108317.2541	1.2004443	2	186	1	7	8	26	1	5	1	108317.6542	0.61727
108318.4546	1.2003769	2	187	1	7	8	27	2	5	1	108318.8547	0.617564
108319.6549	1.2003938	2	188	1	7	8	28	1	4	n/a	108320.0551	n/a
108320.8553	1.2003986	2	189	1	7	8	29	2	4	n/a	108321.2555	n/a
108322.0557	1.2004143	2	190	1	7	8	30	2	4	0	108322.4559	-0.08442130001
108323.2561	1.2005243	2	191	1	7	8	31	2	5	0	108323.6563	0.4154864
108324.4567	1.200295	2	192	1	7	8	32	2	6	1	108324.8567	0.4140664
108325.657	1.2005257	2	193	1	9	9	1	3	n/a	n/a	n/a	n/a
108326.8575	1.2003046	2	194	1	9	9	2	3	n/a	n/a	n/a	n/a
108328.0578	1.2004413	2	195	1	9	9	3	3	n/a	n/a	n/a	n/a
108329.2582	1.2003947	2	196	1	9	9	4	3	n/a	n/a	n/a	n/a
108330.4586	1.2003728	2	197	1	9	9	5	3	n/a	n/a	n/a	n/a
108331.659	1.200464	2	198	1	9	9	6	3	n/a	n/a	n/a	n/a
108332.8595	1.2003638	2	199	1	9	9	7	3	n/a	n/a	n/a	n/a
108334.0598	1.2003791	2	200	1	9	9	8	3	n/a	n/a	n/a	n/a
108335.2602	1.2004859	2	201	1	9	9	9	3	n/a	n/a	n/a	n/a
108336.4607	1.2003242	2	202	1	9	9	10	3	n/a	n/a	n/a	n/a
108337.661	1.2003956	2	203	1	9	9	11	3	n/a	n/a	n/a	n/a
108338.8614	1.2004953	2	204	1	9	9	12	3	n/a	n/a	n/a	n/a
108340.0619	1.2004046	2	205	1	9	9	13	3	n/a	n/a	n/a	n/a
108341.2623	1.2003657	2	206	1	9	9	14	3	n/a	n/a	n/a	n/a
108342.4627	1.2004071	2	207	1	9	9	15	3	n/a	n/a	n/a	n/a
108343.6631	1.2004333	2	208	1	9	9	16	3	n/a	n/a	n/a	n/a
