onset	duration	run_number	trial_number	att_task	bar_direction	bar_period	bar_step	stim_noise_ori	stim_stair_val	response_val	probe_time	reaction_time
1028319.77	1.198218515	3	1	1	9	1	1	3	15	n/a	1028320.169	n/a
1028320.968	1.198800377	3	2	1	9	1	2	3	15	n/a	1028321.368	n/a
1028322.167	1.198747708	3	3	1	9	1	3	3	15	n/a	1028322.566	n/a
1028323.366	1.1988848	3	4	1	9	1	4	3	15	n/a	1028323.765	n/a
1028324.565	1.1986704	3	5	1	9	1	5	3	15	n/a	1028324.964	n/a
1028325.763	1.198882938	3	6	1	9	1	6	3	15	n/a	1028326.163	n/a
1028326.962	1.198674362	3	7	1	9	1	7	3	15	n/a	1028327.362	n/a
1028328.161	1.1989204	3	8	1	9	1	8	3	15	n/a	1028328.56	n/a
1028329.36	1.1988351	3	9	1	9	1	9	3	15	n/a	1028329.759	n/a
1028330.558	1.1987132	3	10	1	9	1	10	3	15	n/a	1028330.958	n/a
1028331.757	1.198835123	3	11	1	9	1	11	3	15	n/a	1028332.157	n/a
1028332.956	1.198758077	3	12	1	9	1	12	3	15	n/a	1028333.356	n/a
1028334.155	1.198840315	3	13	1	9	1	13	3	15	n/a	1028334.554	n/a
1028335.354	1.198789346	3	14	1	9	1	14	3	15	n/a	1028335.753	n/a
1028336.552	1.198755339	3	15	1	9	1	15	3	15	n/a	1028336.952	n/a
1028337.751	1.1987248	3	16	1	9	1	16	3	15	n/a	1028338.151	n/a
1028338.95	1.198913638	3	17	1	1	2	1	2	15	n/a	1028339.35	n/a
1028340.149	1.198773162	3	18	1	1	2	2	1	15	n/a	1028340.548	n/a
1028341.348	1.1988054	3	19	1	1	2	3	1	15	n/a	1028341.747	n/a
1028342.546	1.1988387	3	20	1	1	2	4	1	15	n/a	1028342.946	n/a
1028343.745	1.1987259	3	21	1	1	2	5	1	15	n/a	1028344.145	n/a
1028344.944	1.198835285	3	22	1	1	2	6	1	15	n/a	1028345.344	n/a
1028346.143	1.198777315	3	23	1	1	2	7	2	15	n/a	1028346.542	n/a
1028347.342	1.1988013	3	24	1	1	2	8	2	15	n/a	1028347.741	n/a
1028348.54	1.198802154	3	25	1	1	2	9	1	15	n/a	1028348.94	n/a
1028349.739	1.198778346	3	26	1	1	2	10	1	15	n/a	1028350.139	n/a
1028350.938	1.1986972	3	27	1	1	2	11	2	15	n/a	1028351.338	n/a
1028352.137	1.198910808	3	28	1	1	2	12	2	15	n/a	1028352.536	n/a
1028353.336	1.198795485	3	29	1	1	2	13	2	15	n/a	1028353.735	n/a
1028354.534	1.198790008	3	30	1	1	2	14	1	15	n/a	1028354.934	n/a
1028355.733	1.1987303	3	31	1	1	2	15	1	15	n/a	1028356.133	n/a
1028356.932	1.198868923	3	32	1	1	2	16	2	15	n/a	1028357.331	n/a
1028358.131	1.198800023	3	33	1	1	2	17	1	15	n/a	1028358.53	n/a
1028359.33	1.198795169	3	34	1	1	2	18	1	15	n/a	1028359.729	n/a
1028360.528	1.198787885	3	35	1	1	2	19	2	15	n/a	1028360.928	n/a
1028361.727	1.1988044	3	36	1	1	2	20	1	15	n/a	1028362.127	n/a
1028362.926	1.1988009	3	37	1	1	2	21	1	15	n/a	1028363.326	n/a
1028364.125	1.1987905	3	38	1	1	2	22	1	15	n/a	1028364.524	n/a
1028365.324	1.1987919	3	39	1	1	2	23	2	15	n/a	1028365.723	n/a
1028366.522	1.1987957	3	40	1	1	2	24	2	15	n/a	1028366.922	n/a
1028367.721	1.1987931	3	41	1	1	2	25	2	15	n/a	1028368.121	n/a
1028368.92	1.1987259	3	42	1	1	2	26	2	15	n/a	1028369.32	n/a
1028370.119	1.198874692	3	43	1	1	2	27	2	15	n/a	1028370.518	n/a
1028371.318	1.198791131	3	44	1	1	2	28	1	15	n/a	1028371.717	n/a
1028372.516	1.198796077	3	45	1	1	2	29	1	15	n/a	1028372.916	n/a
1028373.715	1.1987941	3	46	1	1	2	30	2	15	n/a	1028374.115	n/a
1028374.914	1.198801308	3	47	1	1	2	31	2	15	n/a	1028375.313	n/a
1028376.113	1.198675292	3	48	1	1	2	32	1	15	n/a	1028376.512	n/a
1028377.311	1.1988884	3	49	1	9	3	1	3	15	n/a	1028377.711	n/a
1028378.51	1.198823577	3	50	1	9	3	2	3	15	n/a	1028378.91	n/a
1028379.709	1.198794123	3	51	1	9	3	3	3	15	n/a	1028380.109	n/a
1028380.908	1.1987634	3	52	1	9	3	4	3	15	n/a	1028381.307	n/a
1028382.107	1.198741	3	53	1	9	3	5	3	15	n/a	1028382.506	n/a
1028383.305	1.198887607	3	54	1	9	3	6	3	15	n/a	1028383.705	n/a
1028384.504	1.198909793	3	55	1	9	3	7	3	15	n/a	1028384.904	n/a
1028385.703	1.1986725	3	56	1	9	3	8	3	15	n/a	1028386.103	n/a
1028386.902	1.1987671	3	57	1	9	3	9	3	15	n/a	1028387.301	n/a
1028388.101	1.1987276	3	58	1	9	3	10	3	15	n/a	1028388.5	n/a
1028389.299	1.198906154	3	59	1	9	3	11	3	15	n/a	1028389.699	n/a
1028390.498	1.198754646	3	60	1	9	3	12	3	15	n/a	1028390.898	n/a
1028391.697	1.198828777	3	61	1	9	3	13	3	15	n/a	1028392.097	n/a
1028392.896	1.207129838	3	62	1	9	3	14	3	15	n/a	1028393.295	n/a
1028394.103	1.198731085	3	63	1	9	3	15	3	15	n/a	1028394.503	n/a
1028395.302	1.198860661	3	64	1	9	3	16	3	15	n/a	1028395.701	n/a
1028396.501	1.198689539	3	65	1	3	4	1	2	15	n/a	1028396.9	n/a
1028397.699	1.198894523	3	66	1	3	4	2	2	15	n/a	1028398.099	n/a
1028398.898	1.198783677	3	67	1	3	4	3	2	15	n/a	1028399.298	n/a
1028400.097	1.1988077	3	68	1	3	4	4	2	15	n/a	1028400.497	n/a
1028401.296	1.19879	3	69	1	3	4	5	1	15	n/a	1028401.695	n/a
1028402.495	1.1987979	3	70	1	3	4	6	1	15	n/a	1028402.894	n/a
1028403.693	1.198804292	3	71	1	3	4	7	2	15	n/a	1028404.093	n/a
1028404.892	1.198793815	3	72	1	3	4	8	2	15	n/a	1028405.292	n/a
1028406.091	1.198793777	3	73	1	3	4	9	1	15	n/a	1028406.491	n/a
1028407.29	1.198788615	3	74	1	3	4	10	2	15	n/a	1028407.689	n/a
1028408.488	1.1987028	3	75	1	3	4	11	1	15	n/a	1028408.888	n/a
1028409.687	1.198876	3	76	1	3	4	12	1	15	n/a	1028410.087	n/a
1028410.886	1.198816892	3	77	1	3	4	13	1	15	n/a	1028411.286	n/a
1028412.085	1.198672408	3	78	1	3	4	14	1	15	n/a	1028412.484	n/a
1028413.284	1.198922877	3	79	1	3	4	15	1	15	n/a	1028413.683	n/a
1028414.482	1.198794593	3	80	1	3	4	16	2	15	n/a	1028414.882	n/a
1028415.681	1.198762831	3	81	1	3	4	17	2	15	n/a	1028416.081	n/a
1028416.88	1.198823992	3	82	1	3	4	18	1	15	n/a	1028417.279	n/a
1028418.079	1.198758908	3	83	1	3	4	19	1	15	n/a	1028418.478	n/a
1028419.278	1.198834092	3	84	1	3	4	20	2	15	n/a	1028419.677	n/a
1028420.476	1.198798285	3	85	1	3	4	21	1	15	n/a	1028420.876	n/a
1028421.675	1.198714523	3	86	1	3	4	22	1	15	n/a	1028422.075	n/a
1028422.874	1.198882846	3	87	1	3	4	23	2	15	n/a	1028423.274	n/a
1028424.073	1.198678054	3	88	1	3	4	24	1	15	n/a	1028424.472	n/a
1028425.272	1.198907185	3	89	1	3	4	25	1	15	n/a	1028425.671	n/a
1028426.47	1.198799692	3	90	1	3	4	26	1	15	n/a	1028426.87	n/a
1028427.669	1.198786723	3	91	1	3	4	27	2	15	n/a	1028428.069	n/a
1028428.868	1.198804023	3	92	1	3	4	28	2	15	n/a	1028429.268	n/a
1028430.067	1.198781777	3	93	1	3	4	29	2	15	n/a	1028430.466	n/a
1028431.266	1.1989512	3	94	1	3	4	30	1	15	n/a	1028431.665	n/a
1028432.465	1.198653977	3	95	1	3	4	31	1	15	n/a	1028432.864	n/a
1028433.663	1.198779523	3	96	1	3	4	32	1	15	n/a	1028434.063	n/a
1028434.862	1.1987795	3	97	1	9	5	1	3	15	n/a	1028435.262	n/a
1028436.061	1.1987899	3	98	1	9	5	2	3	15	n/a	1028436.46	n/a
1028437.26	1.198839585	3	99	1	9	5	3	3	15	n/a	1028437.659	n/a
1028438.458	1.198781115	3	100	1	9	5	4	3	15	n/a	1028438.858	n/a
1028439.657	1.1987942	3	101	1	9	5	5	3	15	n/a	1028440.057	n/a
1028440.856	1.1987387	3	102	1	9	5	6	3	15	n/a	1028441.256	n/a
1028442.055	1.198863223	3	103	1	9	5	7	3	15	n/a	1028442.454	n/a
1028443.254	1.198796777	3	104	1	9	5	8	3	15	n/a	1028443.653	n/a
1028444.452	1.198798677	3	105	1	9	5	9	3	15	n/a	1028444.852	n/a
1028445.651	1.198789323	3	106	1	9	5	10	3	15	n/a	1028446.051	n/a
1028446.85	1.1987931	3	107	1	9	5	11	3	15	n/a	1028447.25	n/a
1028448.049	1.1986283	3	108	1	9	5	12	3	15	n/a	1028448.448	n/a
1028449.247	1.198972546	3	109	1	9	5	13	3	15	n/a	1028449.647	n/a
1028450.446	1.198795631	3	110	1	9	5	14	3	15	n/a	1028450.846	n/a
1028451.645	1.198792023	3	111	1	9	5	15	3	15	n/a	1028452.045	n/a
1028452.844	1.198800385	3	112	1	9	5	16	3	15	n/a	1028453.243	n/a
1028454.043	1.198722715	3	113	1	5	6	1	2	15	n/a	1028454.442	n/a
1028455.241	1.1988753	3	114	1	5	6	2	1	15	n/a	1028455.641	n/a
1028456.44	1.198792469	3	115	1	5	6	3	2	15	n/a	1028456.84	n/a
1028457.639	1.198793131	3	116	1	5	6	4	2	15	n/a	1028458.039	n/a
1028458.838	1.198796608	3	117	1	5	6	5	1	15	n/a	1028459.237	n/a
1028460.037	1.198677092	3	118	1	5	6	6	1	15	n/a	1028460.436	n/a
1028461.235	1.1988365	3	119	1	5	6	7	2	15	n/a	1028461.635	n/a
1028462.434	1.198867084	3	120	1	5	6	8	2	15	n/a	1028462.834	n/a
1028463.633	1.198703316	3	121	1	5	6	9	1	15	n/a	1028464.033	n/a
1028464.832	1.198895754	3	122	1	5	6	10	2	15	n/a	1028465.232	n/a
1028466.031	1.198789846	3	123	1	5	6	11	1	15	n/a	1028466.43	n/a
1028467.23	1.198799485	3	124	1	5	6	12	1	15	n/a	1028467.629	n/a
1028468.428	1.198794323	3	125	1	5	6	13	1	15	n/a	1028468.828	n/a
1028469.627	1.198800277	3	126	1	5	6	14	2	15	n/a	1028470.027	n/a
1028470.826	1.198802192	3	127	1	5	6	15	1	15	n/a	1028471.225	n/a
1028472.025	1.198795215	3	128	1	5	6	16	2	15	n/a	1028472.424	n/a
1028473.223	1.198798208	3	129	1	5	6	17	2	15	n/a	1028473.623	n/a
1028474.422	1.1988269	3	130	1	5	6	18	1	15	n/a	1028474.822	n/a
1028475.621	1.198753623	3	131	1	5	6	19	1	15	n/a	1028476.021	n/a
1028476.82	1.198749077	3	132	1	5	6	20	1	15	n/a	1028477.219	n/a
1028478.019	1.1988386	3	133	1	5	6	21	2	15	n/a	1028478.418	n/a
1028479.217	1.1987186	3	134	1	5	6	22	2	15	n/a	1028479.617	n/a
1028480.416	1.198881008	3	135	1	5	6	23	2	15	n/a	1028480.816	n/a
1028481.615	1.198795831	3	136	1	5	6	24	2	15	n/a	1028482.015	n/a
1028482.814	1.198794431	3	137	1	5	6	25	2	15	n/a	1028483.213	n/a
1028484.013	1.198797731	3	138	1	5	6	26	1	15	n/a	1028484.412	n/a
1028485.211	1.198794777	3	139	1	5	6	27	1	15	n/a	1028485.611	n/a
1028486.41	1.198792962	3	140	1	5	6	28	1	15	n/a	1028486.81	n/a
1028487.609	1.198797208	3	141	1	5	6	29	2	15	n/a	1028488.009	n/a
1028488.808	1.198779954	3	142	1	5	6	30	2	15	n/a	1028489.207	n/a
1028490.007	1.1988169	3	143	1	5	6	31	1	15	n/a	1028490.406	n/a
1028491.205	1.198776	3	144	1	5	6	32	2	15	n/a	1028491.605	n/a
1028492.404	1.1987745	3	145	1	9	7	1	3	15	n/a	1028492.804	n/a
1028493.603	1.198834392	3	146	1	9	7	2	3	15	n/a	1028494.003	n/a
1028494.802	1.198925908	3	147	1	9	7	3	3	15	n/a	1028495.201	n/a
1028496.001	1.198663361	3	148	1	9	7	4	3	15	n/a	1028496.4	n/a
1028497.199	1.198795339	3	149	1	9	7	5	3	15	n/a	1028497.599	n/a
1028498.398	1.1986926	3	150	1	9	7	6	3	15	n/a	1028498.798	n/a
1028499.597	1.198902192	3	151	1	9	7	7	3	15	n/a	1028499.997	n/a
1028500.796	1.198798931	3	152	1	9	7	8	3	15	n/a	1028501.195	n/a
1028501.995	1.198790177	3	153	1	9	7	9	3	15	n/a	1028502.394	n/a
1028503.193	1.198794	3	154	1	9	7	10	3	15	n/a	1028503.593	n/a
1028504.392	1.198802	3	155	1	9	7	11	3	15	n/a	1028504.792	n/a
1028505.591	1.1987567	3	156	1	9	7	12	3	15	n/a	1028505.991	n/a
1028506.79	1.1988306	3	157	1	9	7	13	3	15	n/a	1028507.189	n/a
1028507.989	1.198798462	3	158	1	9	7	14	3	15	n/a	1028508.388	n/a
1028509.187	1.198796561	3	159	1	9	7	15	3	15	n/a	1028509.587	n/a
1028510.386	1.198781877	3	160	1	9	7	16	3	15	n/a	1028510.786	n/a
1028511.585	1.1986877	3	161	1	7	8	1	1	15	n/a	1028511.985	n/a
1028512.784	1.198916708	3	162	1	7	8	2	1	15	n/a	1028513.183	n/a
1028513.983	1.198794692	3	163	1	7	8	3	1	15	n/a	1028514.382	n/a
1028515.181	1.1987852	3	164	1	7	8	4	2	15	n/a	1028515.581	n/a
1028516.38	1.198804546	3	165	1	7	8	5	2	15	n/a	1028516.78	n/a
1028517.579	1.198721954	3	166	1	7	8	6	2	15	n/a	1028517.979	n/a
1028518.778	1.198875208	3	167	1	7	8	7	1	15	n/a	1028519.177	n/a
1028519.977	1.198780692	3	168	1	7	8	8	1	15	n/a	1028520.376	n/a
1028521.175	1.1988068	3	169	1	7	8	9	2	15	n/a	1028521.575	n/a
1028522.374	1.1987923	3	170	1	7	8	10	2	15	n/a	1028522.774	n/a
1028523.573	1.198807185	3	171	1	7	8	11	1	15	n/a	1028523.972	n/a
1028524.772	1.198679315	3	172	1	7	8	12	1	15	n/a	1028525.171	n/a
1028525.97	1.1988344	3	173	1	7	8	13	2	15	n/a	1028526.37	n/a
1028527.169	1.198876185	3	174	1	7	8	14	1	15	n/a	1028527.569	n/a
1028528.368	1.198776515	3	175	1	7	8	15	2	15	n/a	1028528.768	n/a
1028529.567	1.198816677	3	176	1	7	8	16	2	15	n/a	1028529.966	n/a
1028530.766	1.198782823	3	177	1	7	8	17	2	15	n/a	1028531.165	n/a
1028531.964	1.1987976	3	178	1	7	8	18	1	15	n/a	1028532.364	n/a
1028533.163	1.198803723	3	179	1	7	8	19	2	15	n/a	1028533.563	n/a
1028534.362	1.198780177	3	180	1	7	8	20	1	15	n/a	1028534.762	n/a
1028535.561	1.1987919	3	181	1	7	8	21	1	15	n/a	1028535.96	n/a
1028536.76	1.1987192	3	182	1	7	8	22	1	15	n/a	1028537.159	n/a
1028537.958	1.198891354	3	183	1	7	8	23	1	15	n/a	1028538.358	n/a
1028539.157	1.198773746	3	184	1	7	8	24	2	15	n/a	1028539.557	n/a
1028540.356	1.1988099	3	185	1	7	8	25	2	15	n/a	1028540.756	n/a
1028541.555	1.1987879	3	186	1	7	8	26	1	15	n/a	1028541.954	n/a
1028542.754	1.198814092	3	187	1	7	8	27	1	15	n/a	1028543.153	n/a
1028543.952	1.198794362	3	188	1	7	8	28	2	15	n/a	1028544.352	n/a
1028545.151	1.198755046	3	189	1	7	8	29	2	15	n/a	1028545.551	n/a
1028546.35	1.198832238	3	190	1	7	8	30	2	15	n/a	1028546.75	n/a
1028547.549	1.198785662	3	191	1	7	8	31	1	15	n/a	1028547.948	n/a
1028548.748	1.1987955	3	192	1	7	8	32	1	15	n/a	1028549.147	n/a
1028549.946	1.198818362	3	193	1	9	9	1	3	15	n/a	1028550.346	n/a
1028551.145	1.198787562	3	194	1	9	9	2	3	15	n/a	1028551.545	n/a
1028552.344	1.198791877	3	195	1	9	9	3	3	15	n/a	1028552.744	n/a
1028553.543	1.1987829	3	196	1	9	9	4	3	15	n/a	1028553.942	n/a
1028554.742	1.1988132	3	197	1	9	9	5	3	15	n/a	1028555.141	n/a
1028555.94	1.1986923	3	198	1	9	9	6	3	15	n/a	1028556.34	n/a
1028557.139	1.1988779	3	199	1	9	9	7	3	15	n/a	1028557.539	n/a
1028558.338	1.198818438	3	200	1	9	9	8	3	15	n/a	1028558.738	n/a
1028559.537	1.198645262	3	201	1	9	9	9	3	15	n/a	1028559.936	n/a
1028560.735	1.1988253	3	202	1	9	9	10	3	15	n/a	1028561.135	n/a
1028561.934	1.1988077	3	203	1	9	9	11	3	15	n/a	1028562.334	n/a
1028563.133	1.198901938	3	204	1	9	9	12	3	15	n/a	1028563.533	n/a
1028564.332	1.198664862	3	205	1	9	9	13	3	15	n/a	1028564.732	n/a
1028565.531	1.1987759	3	206	1	9	9	14	3	15	n/a	1028565.93	n/a
1028566.729	1.1989019	3	207	1	9	9	15	3	15	n/a	1028567.129	n/a
1028567.928	1.1987108	3	208	1	9	9	16	3	15	n/a	1028568.328	n/a
