onset	duration	run_number	trial_number	att_task	bar_direction	bar_period	bar_step	stim_noise_ori	stim_stair_val	response_val	probe_time	reaction_time
3403.376439	1.1988523	2	1	1	9	1	1	3	8	n/a	n/a	n/a
3404.583525	1.191616	2	2	1	9	1	2	3	8	n/a	n/a	n/a
3405.783382	1.1915339	2	3	1	9	1	3	3	8	n/a	n/a	n/a
3406.983148	1.1915914	2	4	1	9	1	4	3	8	n/a	n/a	n/a
3408.183831	1.1915293	2	5	1	9	1	5	3	8	n/a	n/a	n/a
3409.382857	1.1915166	2	6	1	9	1	6	3	8	n/a	n/a	n/a
3410.582773	1.1913738	2	7	1	9	1	7	3	8	n/a	n/a	n/a
3411.782439	1.1914999	2	8	1	9	1	8	3	8	n/a	n/a	n/a
3412.982217	1.1915518	2	9	1	9	1	9	3	8	n/a	n/a	n/a
3414.182052	1.1915709	2	10	1	9	1	10	3	8	n/a	n/a	n/a
3415.381895	1.191547	2	11	1	9	1	11	3	8	n/a	n/a	n/a
3416.58172	1.1915522	2	12	1	9	1	12	3	8	n/a	n/a	n/a
3417.781557	1.1915638	2	13	1	9	1	13	3	8	n/a	n/a	n/a
3418.981393	1.192007	2	14	1	9	1	14	3	8	n/a	n/a	n/a
3420.181659	1.1911813	2	15	1	9	1	15	3	8	n/a	n/a	n/a
3421.38111	1.1915963	2	16	1	9	1	16	3	8	n/a	n/a	n/a
3422.598328	1.1908186	2	17	1	1	2	1	2	8	n/a	3422.939402	n/a
3423.797421	1.1998907	2	18	1	1	2	2	1	8	n/a	3424.139265	n/a
3425.00559	1.191667	2	19	1	1	2	3	2	8	n/a	3425.347431	n/a
3426.205413	1.1915664	2	20	1	1	2	4	1	8	n/a	3426.547259	n/a
3427.405261	1.1915545	2	21	1	1	2	5	1	8	n/a	3427.747992	n/a
3428.605096	1.191558	2	22	1	1	2	6	2	8	n/a	3428.946977	n/a
3429.804927	1.1915874	2	23	1	1	2	7	2	8	n/a	3430.14662	n/a
3431.004766	1.1915519	2	24	1	1	2	8	2	8	n/a	3431.346432	n/a
3432.204603	1.1915627	2	25	1	1	2	9	2	8	n/a	3432.546253	n/a
3433.404439	1.1915415	2	26	1	1	2	10	1	8	n/a	3433.746114	n/a
3434.604257	1.1915869	2	27	1	1	2	11	1	8	n/a	3434.945938	n/a
3435.804107	1.191551	2	28	1	1	2	12	1	8	n/a	3436.14578	n/a
3437.003942	1.1915583	2	29	1	1	2	13	2	8	n/a	3437.345595	n/a
3438.203753	1.1915793	2	30	1	1	2	14	2	8	n/a	3438.545415	n/a
3439.403612	1.1999024	2	31	1	1	2	15	1	8	n/a	3439.745276	n/a
3440.611785	1.1915437	2	32	1	1	2	16	1	8	n/a	3440.953454	n/a
3441.811613	1.191557	2	33	1	1	2	17	2	8	n/a	3442.153281	n/a
3443.011439	1.1915394	2	34	1	1	2	18	1	8	n/a	3443.353157	n/a
3444.211324	1.1915425	2	35	1	1	2	19	2	8	n/a	3444.552923	n/a
3445.411096	1.1915373	2	36	1	1	2	20	2	8	n/a	3445.752791	n/a
3446.610915	1.1916034	2	37	1	1	2	21	2	8	n/a	3446.952569	n/a
3447.810753	1.1915459	2	38	1	1	2	22	2	8	n/a	3448.152442	n/a
3449.010589	1.191544	2	39	1	1	2	23	2	8	n/a	3449.352253	n/a
3450.210422	1.19153	2	40	1	1	2	24	2	8	n/a	3450.552119	n/a
3451.410239	1.1915854	2	41	1	1	2	25	1	8	n/a	3451.75191	n/a
3452.610076	1.1915476	2	42	1	1	2	26	1	8	n/a	3452.951762	n/a
3453.809911	1.1998825	2	43	1	1	2	27	1	8	n/a	3454.151565	n/a
3455.018078	1.1915706	2	44	1	1	2	28	2	8	n/a	3455.359736	n/a
3456.217919	1.1915455	2	45	1	1	2	29	1	8	n/a	3456.559572	n/a
3457.417747	1.1998959	2	46	1	1	2	30	1	8	n/a	3457.759446	n/a
3458.625915	1.1915836	2	47	1	1	2	31	2	8	n/a	3458.967582	n/a
3459.825765	1.1915346	2	48	1	1	2	32	1	8	n/a	3460.167408	n/a
3461.026226	1.1911649	2	49	1	9	3	1	3	8	n/a	n/a	n/a
3462.225652	1.1996719	2	50	1	9	3	2	3	8	n/a	n/a	n/a
3463.433592	1.1915493	2	51	1	9	3	3	3	8	n/a	n/a	n/a
3464.633425	1.1915539	2	52	1	9	3	4	3	8	n/a	n/a	n/a
3465.833262	1.1915877	2	53	1	9	3	5	3	8	n/a	n/a	n/a
3467.033112	1.1915382	2	54	1	9	3	6	3	8	n/a	n/a	n/a
3468.232932	1.191607	2	55	1	9	3	7	3	8	n/a	n/a	n/a
3469.432784	1.1915422	2	56	1	9	3	8	3	8	n/a	n/a	n/a
3470.632605	1.1915536	2	57	1	9	3	9	3	8	n/a	n/a	n/a
3471.832441	1.1915529	2	58	1	9	3	10	3	8	n/a	n/a	n/a
3473.032274	1.1915757	2	59	1	9	3	11	3	8	n/a	n/a	n/a
3474.232118	1.1915466	2	60	1	9	3	12	3	8	n/a	n/a	n/a
3475.431949	1.1915637	2	61	1	9	3	13	3	8	n/a	n/a	n/a
3476.631783	1.1915547	2	62	1	9	3	14	3	8	n/a	n/a	n/a
3477.831619	1.1915592	2	63	1	9	3	15	3	8	n/a	n/a	n/a
3479.031457	1.1915482	2	64	1	9	3	16	3	8	n/a	n/a	n/a
3480.239793	1.191374	2	65	1	3	4	1	2	8	n/a	3480.58128	n/a
3481.439457	1.1915438	2	66	1	3	4	2	2	8	n/a	3481.781125	n/a
3482.63929	1.1915635	2	67	1	3	4	3	1	8	n/a	3482.980947	n/a
3483.839129	1.1915448	2	68	1	3	4	4	2	8	n/a	3484.180783	n/a
3485.038961	1.1915581	2	69	1	3	4	5	1	8	n/a	3485.380641	n/a
3486.238796	1.1915488	2	70	1	3	4	6	2	8	n/a	3486.580454	n/a
3487.438632	1.1915464	2	71	1	3	4	7	2	8	n/a	3487.780294	n/a
3488.638467	1.1915535	2	72	1	3	4	8	2	8	n/a	3488.980138	n/a
3489.838309	1.1916014	2	73	1	3	4	9	1	8	n/a	3490.179969	n/a
3491.038145	1.1915454	2	74	1	3	4	10	1	8	n/a	3491.379803	n/a
3492.237978	1.1915478	2	75	1	3	4	11	2	8	n/a	3492.579641	n/a
3493.437812	1.1998838	2	76	1	3	4	12	1	8	n/a	3493.779468	n/a
3494.645982	1.191546	2	77	1	3	4	13	2	8	n/a	3494.987643	n/a
3495.845817	1.191587	2	78	1	3	4	14	2	8	n/a	3496.187479	n/a
3497.045667	1.1915458	2	79	1	3	4	15	1	8	n/a	3497.387313	n/a
3498.245489	1.191552	2	80	1	3	4	16	1	8	n/a	3498.587147	n/a
3499.445323	1.1915527	2	81	1	3	4	17	2	8	n/a	3499.786982	n/a
3500.645162	1.1915447	2	82	1	3	4	18	1	8	n/a	3500.986813	n/a
3501.845005	1.1915369	2	83	1	3	4	19	1	8	n/a	3502.186698	n/a
3503.044828	1.200334	2	84	1	3	4	20	2	8	n/a	3503.386915	n/a
3504.253009	1.1915522	2	85	1	3	4	21	2	8	n/a	3504.594695	n/a
3505.452838	1.1915448	2	86	1	3	4	22	1	8	n/a	3505.794493	n/a
3506.652669	1.1999047	2	87	1	3	4	23	2	8	n/a	3506.994332	n/a
3507.86085	1.1915947	2	88	1	3	4	24	2	8	n/a	3508.202525	n/a
3509.060715	1.1915377	2	89	1	3	4	25	2	8	n/a	3509.402365	n/a
3510.260535	1.1915895	2	90	1	3	4	26	1	8	n/a	3510.602235	n/a
3511.460354	1.1999455	2	91	1	3	4	27	2	8	n/a	3511.802034	n/a
3512.668584	1.1919951	2	92	1	3	4	28	2	8	n/a	3513.010311	n/a
3513.868616	1.1913351	2	93	1	3	4	29	2	8	n/a	3514.210073	n/a
3515.068202	1.191619	2	94	1	3	4	30	2	8	n/a	3515.40989	n/a
3516.268079	1.1915527	2	95	1	3	4	31	1	8	n/a	3516.609733	n/a
3517.467899	1.1916038	2	96	1	3	4	32	1	8	n/a	3517.80957	n/a
3518.676515	1.1910582	2	97	1	9	5	1	3	8	n/a	n/a	n/a
3519.87587	1.1915362	2	98	1	9	5	2	3	8	n/a	n/a	n/a
3521.075692	1.1915541	2	99	1	9	5	3	3	8	n/a	n/a	n/a
3522.275534	1.1915562	2	100	1	9	5	4	3	8	n/a	n/a	n/a
3523.475368	1.1915657	2	101	1	9	5	5	3	8	n/a	n/a	n/a
3524.675202	1.1915874	2	102	1	9	5	6	3	8	n/a	n/a	n/a
3525.875041	1.1915569	2	103	1	9	5	7	3	8	n/a	n/a	n/a
3527.074874	1.2001185	2	104	1	9	5	8	3	8	n/a	n/a	n/a
3528.283051	1.191563	2	105	1	9	5	9	3	8	n/a	n/a	n/a
3529.482883	1.1915517	2	106	1	9	5	10	3	8	n/a	n/a	n/a
3530.682719	1.1915891	2	107	1	9	5	11	3	8	n/a	n/a	n/a
3531.882586	1.1915544	2	108	1	9	5	12	3	8	n/a	n/a	n/a
3533.082397	1.1915524	2	109	1	9	5	13	3	8	n/a	n/a	n/a
3534.282238	1.1915547	2	110	1	9	5	14	3	8	n/a	n/a	n/a
3535.482067	1.1915554	2	111	1	9	5	15	3	8	n/a	n/a	n/a
3536.681904	1.1915599	2	112	1	9	5	16	3	8	n/a	n/a	n/a
3537.890112	1.1915087	2	113	1	5	6	1	2	8	n/a	3538.231764	n/a
3539.089899	1.1915855	2	114	1	5	6	2	2	8	n/a	3539.431576	n/a
3540.289741	1.1915617	2	115	1	5	6	3	2	8	n/a	3540.631426	n/a
3541.489579	1.1915645	2	116	1	5	6	4	1	8	n/a	3541.831236	n/a
3542.689454	1.191516	2	117	1	5	6	5	1	8	n/a	3543.031093	n/a
3543.889262	1.1915545	2	118	1	5	6	6	1	8	n/a	3544.230924	n/a
3545.089087	1.1915611	2	119	1	5	6	7	2	8	n/a	3545.43075	n/a
3546.288924	1.1915895	2	120	1	5	6	8	1	8	n/a	3546.63059	n/a
3547.488763	1.1915513	2	121	1	5	6	9	1	8	n/a	3547.830425	n/a
3548.688598	1.1915544	2	122	1	5	6	10	2	8	n/a	3549.030254	n/a
3549.888435	1.1915567	2	123	1	5	6	11	2	8	n/a	3550.230096	n/a
3551.088257	1.2082648	2	124	1	5	6	12	1	8	n/a	3551.438269	n/a
3552.304798	1.1915606	2	125	1	5	6	13	2	8	n/a	3552.646467	n/a
3553.504637	1.1999313	2	126	1	5	6	14	2	8	n/a	3553.855111	n/a
3554.712804	1.1915935	2	127	1	5	6	15	1	8	n/a	3555.05443	n/a
3555.912646	1.1915656	2	128	1	5	6	16	2	8	n/a	3556.254304	n/a
3557.112512	1.1915064	2	129	1	5	6	17	1	8	n/a	3557.454177	n/a
3558.31234	1.1915807	2	130	1	5	6	18	1	8	n/a	3558.65395	n/a
3559.512112	1.1915688	2	131	1	5	6	19	2	8	n/a	3559.853789	n/a
3560.71195	1.1915831	2	132	1	5	6	20	1	8	n/a	3561.053615	n/a
3561.911787	1.1915681	2	133	1	5	6	21	2	8	n/a	3562.253451	n/a
3563.111639	1.1915505	2	134	1	5	6	22	1	8	n/a	3563.453316	n/a
3564.311477	1.1915775	2	135	1	5	6	23	1	8	n/a	3564.653602	n/a
3565.511313	1.1915536	2	136	1	5	6	24	1	8	n/a	3565.852973	n/a
3566.711149	1.1915541	2	137	1	5	6	25	2	8	n/a	3567.052848	n/a
3567.910988	1.1915911	2	138	1	5	6	26	2	8	n/a	3568.252659	n/a
3569.110827	1.1998878	2	139	1	5	6	27	1	8	n/a	3569.452491	n/a
3570.318993	1.1999006	2	140	1	5	6	28	1	8	n/a	3570.668992	n/a
3571.527166	1.191554	2	141	1	5	6	29	1	8	n/a	3571.868826	n/a
3572.727002	1.1916034	2	142	1	5	6	30	2	8	n/a	3573.06866	n/a
3573.926842	1.191547	2	143	1	5	6	31	2	8	n/a	3574.268537	n/a
3575.126676	1.1915936	2	144	1	5	6	32	2	8	n/a	3575.46835	n/a
3576.326521	1.1915403	2	145	1	9	7	1	3	8	n/a	n/a	n/a
3577.526339	1.191578	2	146	1	9	7	2	3	8	n/a	n/a	n/a
3578.726179	1.1915575	2	147	1	9	7	3	3	8	n/a	n/a	n/a
3579.926016	1.1915549	2	148	1	9	7	4	3	8	n/a	n/a	n/a
3581.125863	1.1915443	2	149	1	9	7	5	3	8	n/a	n/a	n/a
3582.325689	1.1915882	2	150	1	9	7	6	3	8	n/a	n/a	n/a
3583.525535	1.1999075	2	151	1	9	7	7	3	8	n/a	n/a	n/a
3584.733724	1.1915465	2	152	1	9	7	8	3	8	n/a	n/a	n/a
3585.933538	1.1915558	2	153	1	9	7	9	3	8	n/a	n/a	n/a
3587.133375	1.1915569	2	154	1	9	7	10	3	8	n/a	n/a	n/a
3588.333213	1.1915634	2	155	1	9	7	11	3	8	n/a	n/a	n/a
3589.53305	1.1915734	2	156	1	9	7	12	3	8	n/a	n/a	n/a
3590.733103	1.1913567	2	157	1	9	7	13	3	8	n/a	n/a	n/a
3591.932722	1.1915609	2	158	1	9	7	14	3	8	n/a	n/a	n/a
3593.132561	1.1915631	2	159	1	9	7	15	3	8	n/a	n/a	n/a
3594.332404	1.191558	2	160	1	9	7	16	3	8	n/a	n/a	n/a
3595.540667	1.1914514	2	161	1	7	8	1	2	8	n/a	3595.882266	n/a
3596.740406	1.1915707	2	162	1	7	8	2	2	8	n/a	3597.082111	n/a
3597.940249	1.1915674	2	163	1	7	8	3	1	8	n/a	3598.281908	n/a
3599.140083	1.1915521	2	164	1	7	8	4	1	8	n/a	3599.481752	n/a
3600.339917	1.1915582	2	165	1	7	8	5	1	8	n/a	3600.681576	n/a
3601.539742	1.1915502	2	166	1	7	8	6	2	8	n/a	3601.881397	n/a
3602.739579	1.1915457	2	167	1	7	8	7	1	8	n/a	3603.081254	n/a
3603.939416	1.1915524	2	168	1	7	8	8	2	8	n/a	3604.281085	n/a
3605.139257	1.1915773	2	169	1	7	8	9	1	8	n/a	3605.480932	n/a
3606.339097	1.1915703	2	170	1	7	8	10	2	8	n/a	3606.680755	n/a
3607.538969	1.1919128	2	171	1	7	8	11	1	8	n/a	3607.880609	n/a
3608.738918	1.1914036	2	172	1	7	8	12	1	8	n/a	3609.080426	n/a
3609.93861	1.1915521	2	173	1	7	8	13	1	8	n/a	3610.280268	n/a
3611.13845	1.1916986	2	174	1	7	8	14	1	8	n/a	3611.480125	n/a
3612.338302	1.191594	2	175	1	7	8	15	1	8	n/a	3612.679962	n/a
3613.538156	1.191535	2	176	1	7	8	16	1	8	n/a	3613.879805	n/a
3614.737978	1.1915504	2	177	1	7	8	17	1	8	n/a	3615.079633	n/a
3615.93782	1.1916037	2	178	1	7	8	18	1	8	n/a	3616.27948	n/a
3617.137691	1.2082227	2	179	1	7	8	19	2	8	n/a	3617.487727	n/a
3618.354197	1.1915426	2	180	1	7	8	20	2	8	n/a	3618.695864	n/a
3619.554036	1.191582	2	181	1	7	8	21	1	8	n/a	3619.895731	n/a
3620.75386	1.1915677	2	182	1	7	8	22	2	8	n/a	3621.095541	n/a
3621.953707	1.1915631	2	183	1	7	8	23	2	8	n/a	3622.29538	n/a
3623.153525	1.19158	2	184	1	7	8	24	1	8	n/a	3623.495254	n/a
3624.353388	1.1915539	2	185	1	7	8	25	1	8	n/a	3624.695065	n/a
3625.553231	1.1915383	2	186	1	7	8	26	2	8	n/a	3625.894896	n/a
3626.753036	1.1916131	2	187	1	7	8	27	1	8	n/a	3627.094718	n/a
3627.952902	1.1915605	2	188	1	7	8	28	2	8	n/a	3628.294568	n/a
3629.152739	1.19156	2	189	1	7	8	29	2	8	n/a	3629.494406	n/a
3630.352565	1.1915812	2	190	1	7	8	30	1	8	n/a	3630.694276	n/a
3631.552431	1.1915542	2	191	1	7	8	31	2	8	n/a	3631.894074	n/a
3632.752288	1.1915412	2	192	1	7	8	32	1	8	n/a	3633.093895	n/a
3633.960444	1.1915823	2	193	1	9	9	1	3	8	n/a	n/a	n/a
3635.160272	1.1915871	2	194	1	9	9	2	3	8	n/a	n/a	n/a
3636.360114	1.191548	2	195	1	9	9	3	3	8	n/a	n/a	n/a
3637.55994	1.1915479	2	196	1	9	9	4	3	8	n/a	n/a	n/a
3638.759768	1.1915598	2	197	1	9	9	5	3	8	n/a	n/a	n/a
3639.959604	1.1915402	2	198	1	9	9	6	3	8	n/a	n/a	n/a
3641.159413	1.1916252	2	199	1	9	9	7	3	8	n/a	n/a	n/a
3642.359282	1.1915573	2	200	1	9	9	8	3	8	n/a	n/a	n/a
3643.559133	1.1915695	2	201	1	9	9	9	3	8	n/a	n/a	n/a
3644.758982	1.1915489	2	202	1	9	9	10	3	8	n/a	n/a	n/a
3645.95879	1.191561	2	203	1	9	9	11	3	8	n/a	n/a	n/a
3647.158639	1.1915629	2	204	1	9	9	12	3	8	n/a	n/a	n/a
3648.35848	1.1915999	2	205	1	9	9	13	3	8	n/a	n/a	n/a
3649.558346	1.191595	2	206	1	9	9	14	3	8	n/a	n/a	n/a
3650.758185	1.1915112	2	207	1	9	9	15	3	8	n/a	n/a	n/a
3651.957974	1.191571	2	208	1	9	9	16	3	8	n/a	n/a	n/a
