onset	duration	run_number	trial_number	att_task	bar_direction	bar_period	bar_step	stim_noise_ori	stim_stair_val	response_val	probe_time	reaction_time
4282.805239	1.1909638	5	1	1	9	1	1	3	8	n/a	n/a	n/a
4284.004411	1.1916296	5	2	1	9	1	2	3	8	n/a	n/a	n/a
4285.204241	1.1916249	5	3	1	9	1	3	3	8	n/a	n/a	n/a
4286.404078	1.1916259	5	4	1	9	1	4	3	8	n/a	n/a	n/a
4287.605	1.1913278	5	5	1	9	1	5	3	8	n/a	n/a	n/a
4288.803804	1.1999078	5	6	1	9	1	6	3	8	n/a	n/a	n/a
4290.01227	1.1994943	5	7	1	9	1	7	3	8	n/a	n/a	n/a
4291.220024	1.1915296	5	8	1	9	1	8	3	8	n/a	n/a	n/a
4292.419831	1.1915592	5	9	1	9	1	9	3	8	n/a	n/a	n/a
4293.619664	1.1914994	5	10	1	9	1	10	3	8	n/a	n/a	n/a
4294.819449	1.1915558	5	11	1	9	1	11	3	8	n/a	n/a	n/a
4296.019283	1.1916697	5	12	1	9	1	12	3	8	n/a	n/a	n/a
4297.219226	1.1914936	5	13	1	9	1	13	3	8	n/a	n/a	n/a
4298.418985	1.1915722	5	14	1	9	1	14	3	8	n/a	n/a	n/a
4299.61883	1.1915794	5	15	1	9	1	15	3	8	n/a	n/a	n/a
4300.818654	1.1915896	5	16	1	9	1	16	3	8	n/a	n/a	n/a
4302.052483	1.199311	5	17	1	1	2	1	1	8	1	4302.393735	0.5933171
4303.260059	1.1914689	5	18	1	1	2	2	1	8	1	4303.601842	0.6168584
4304.459809	1.199938	5	19	1	1	2	3	1	7	1	4304.801672	0.5836878
4305.668038	1.1998456	5	20	1	1	2	4	1	7	1	4306.009887	0.4750931
4306.876169	1.1998955	5	21	1	1	2	5	2	7	1	4307.219065	0.5414194
4308.084354	1.1915489	5	22	1	1	2	6	2	6	1	4308.426255	0.5500285
4309.284185	1.1915275	5	23	1	1	2	7	2	7	0	4309.625882	0.5100917
4310.48398	1.191619	5	24	1	1	2	8	1	7	1	4310.82565	0.5421215
4311.683852	1.1915109	5	25	1	1	2	9	2	7	1	4312.025525	0.6418782
4312.883651	1.1998869	5	26	1	1	2	10	2	8	0	4313.225305	0.4584132
4314.091827	1.1915377	5	27	1	1	2	11	2	9	0	4314.433482	0.416704
4315.291646	1.1915421	5	28	1	1	2	12	1	9	1	4315.633317	0.4671284
4316.491484	1.1915581	5	29	1	1	2	13	1	9	1	4316.83315	0.4583222
4317.691324	1.1999359	5	30	1	1	2	14	1	8	1	4318.033001	0.491667
4318.899515	1.1915595	5	31	1	1	2	15	1	8	1	4319.241234	0.4999357
4320.099384	1.1998038	5	32	1	1	2	16	2	8	1	4320.440976	0.5344796
4321.30748	1.1915453	5	33	1	1	2	17	2	7	1	4321.649137	0.5684859
4322.507315	1.1915538	5	34	1	1	2	18	2	7	1	4322.848974	0.5668523
4323.70716	1.1916311	5	35	1	1	2	19	1	7	1	4324.048888	0.6665965
4324.907045	1.1999094	5	36	1	1	2	20	1	6	1	4325.24868	0.5754908
4326.115215	1.1915043	5	37	1	1	2	21	1	6	1	4326.45687	0.6583073
4327.315012	1.1915348	5	38	1	1	2	22	2	6	1	4327.656699	0.5916487
4328.514845	1.199876	5	39	1	1	2	23	2	5	1	4328.86483	0.6249909
4329.723018	1.1915569	5	40	1	1	2	24	2	5	1	4330.064695	0.6582899
4330.922854	1.191558	5	41	1	1	2	25	1	5	1	4331.26452	0.7249747
4332.122691	1.1915678	5	42	1	1	2	26	2	4	1	4332.464349	0.7082906
4333.322519	1.1998831	5	43	1	1	2	27	1	4	n/a	4333.664181	n/a
4334.530686	1.1915255	5	44	1	1	2	28	1	4	1	4334.87234	0.7249746
4335.730525	1.191559	5	45	1	1	2	29	1	4	n/a	4336.072183	n/a
4336.930361	1.1915497	5	46	1	1	2	30	1	4	n/a	4337.272034	n/a
4338.130197	1.1915643	5	47	1	1	2	31	1	4	1	4338.471862	0.1833414
4339.330049	1.1915258	5	48	1	1	2	32	1	4	1	4339.671709	0.8249856
4340.539086	1.1909113	5	49	1	9	3	1	3	3	n/a	n/a	n/a
4341.738268	1.1913597	5	50	1	9	3	2	3	3	n/a	n/a	n/a
4342.937879	1.1915726	5	51	1	9	3	3	3	3	n/a	n/a	n/a
4344.137717	1.1915427	5	52	1	9	3	4	3	3	n/a	n/a	n/a
4345.337542	1.1915651	5	53	1	9	3	5	3	3	n/a	n/a	n/a
4346.537379	1.1915872	5	54	1	9	3	6	3	3	n/a	n/a	n/a
4347.737217	1.1999733	5	55	1	9	3	7	3	3	n/a	n/a	n/a
4348.945434	1.1915553	5	56	1	9	3	8	3	3	n/a	n/a	n/a
4350.145266	1.1915563	5	57	1	9	3	9	3	3	n/a	n/a	n/a
4351.345093	1.1915701	5	58	1	9	3	10	3	3	n/a	n/a	n/a
4352.544908	1.1915401	5	59	1	9	3	11	3	3	n/a	n/a	n/a
4353.744734	1.1999499	5	60	1	9	3	12	3	3	n/a	n/a	n/a
4354.952916	1.1915897	5	61	1	9	3	13	3	3	n/a	n/a	n/a
4356.152745	1.1915475	5	62	1	9	3	14	3	3	n/a	n/a	n/a
4357.35262	1.1915093	5	63	1	9	3	15	3	3	n/a	n/a	n/a
4358.552412	1.1915855	5	64	1	9	3	16	3	3	n/a	n/a	n/a
4359.76077	1.1918013	5	65	1	3	4	1	1	3	1	4360.10228	0.3499713
4360.960439	1.1916206	5	66	1	3	4	2	2	3	n/a	4361.302078	n/a
4362.160305	1.1915374	5	67	1	3	4	3	2	3	n/a	4362.501949	n/a
4363.360124	1.1998892	5	68	1	3	4	4	2	4	0	4363.701799	0.2417649
4364.56829	1.1915512	5	69	1	3	4	5	1	4	1	4364.90997	0.5832669
4365.768127	1.1916087	5	70	1	3	4	6	2	5	0	4366.109807	0.642187
4366.967986	1.1915242	5	71	1	3	4	7	1	5	1	4367.309714	0.508263
4368.167807	1.1915787	5	72	1	3	4	8	1	5	1	4368.50947	0.5166577
4369.367686	1.1915206	5	73	1	3	4	9	2	6	0	4369.709302	0.4920975
4370.567483	1.1998003	5	74	1	3	4	10	1	7	0	4370.909126	0.7668707
4371.775597	1.1998978	5	75	1	3	4	11	1	8	0	4372.117268	0.7504975
4372.983767	1.1915247	5	76	1	3	4	12	2	9	0	4373.325426	0.6916609
4374.183602	1.1915381	5	77	1	3	4	13	1	10	0	4374.525311	0.7332931
4375.383451	1.1915805	5	78	1	3	4	14	2	11	0	4375.725119	0.7666419
4376.583312	1.1998645	5	79	1	3	4	15	1	12	0	4376.92496	0.6499838
4377.791445	1.1999371	5	80	1	3	4	16	2	13	0	4378.13311	0.6083082
4378.99962	1.1920699	5	81	1	3	4	17	2	14	0	4379.341293	0.7166287
4380.199938	1.1994179	5	82	1	3	4	18	2	14	0	4380.5495	0.8166075
4381.407712	1.191489	5	83	1	3	4	19	1	15	0	4381.749389	0.766885
4382.607496	1.1915998	5	84	1	3	4	20	2	15	n/a	4382.949219	n/a
4383.807381	1.191525	5	85	1	3	4	21	1	15	n/a	4384.149026	n/a
4385.007169	1.1998866	5	86	1	3	4	22	2	15	1	4385.348858	0.058323
4386.215322	1.191562	5	87	1	3	4	23	2	15	n/a	4386.556982	n/a
4387.415161	1.1915488	5	88	1	3	4	24	1	15	n/a	4387.756832	n/a
4388.614995	1.1915322	5	89	1	3	4	25	2	15	1	4388.956694	0.699921
4389.814843	1.1916063	5	90	1	3	4	26	2	14	1	4390.156496	0.6083374
4391.014681	1.1915542	5	91	1	3	4	27	2	14	1	4391.356367	0.5582952
4392.21452	1.1915533	5	92	1	3	4	28	1	15	0	4392.556179	0.7583235
4393.414361	1.1915393	5	93	1	3	4	29	1	15	n/a	4393.75604	n/a
4394.614182	1.1915525	5	94	1	3	4	30	1	15	0	4394.95584	0.0250121
4395.814027	1.1915489	5	95	1	3	4	31	1	15	n/a	4396.15572	n/a
4397.013857	1.1915749	5	96	1	3	4	32	1	15	0	4397.355521	0.0917119
4398.222119	1.1914504	5	97	1	9	5	1	3	15	n/a	n/a	n/a
4399.421853	1.1915756	5	98	1	9	5	2	3	15	n/a	n/a	n/a
4400.621837	1.1914111	5	99	1	9	5	3	3	15	n/a	n/a	n/a
4401.821526	1.1998892	5	100	1	9	5	4	3	15	n/a	n/a	n/a
4403.029699	1.1915549	5	101	1	9	5	5	3	15	n/a	n/a	n/a
4404.229539	1.1915661	5	102	1	9	5	6	3	15	n/a	n/a	n/a
4405.429383	1.1998943	5	103	1	9	5	7	3	15	n/a	n/a	n/a
4406.637545	1.1916506	5	104	1	9	5	8	3	15	n/a	n/a	n/a
4407.837382	1.191567	5	105	1	9	5	9	3	15	n/a	n/a	n/a
4409.037221	1.1915574	5	106	1	9	5	10	3	15	n/a	n/a	n/a
4410.23706	1.1915552	5	107	1	9	5	11	3	15	n/a	n/a	n/a
4411.436896	1.1915715	5	108	1	9	5	12	3	15	n/a	n/a	n/a
4412.636747	1.1915524	5	109	1	9	5	13	3	15	n/a	n/a	n/a
4413.836572	1.191564	5	110	1	9	5	14	3	15	n/a	n/a	n/a
4415.036409	1.1915585	5	111	1	9	5	15	3	15	n/a	n/a	n/a
4416.236249	1.1915527	5	112	1	9	5	16	3	15	n/a	n/a	n/a
4417.453209	1.2077906	5	113	1	5	6	1	1	15	n/a	4417.811131	n/a
4418.669257	1.1915821	5	114	1	5	6	2	2	15	n/a	4419.010949	n/a
4419.869505	1.1911612	5	115	1	5	6	3	2	15	n/a	4420.210775	n/a
4421.068942	1.2003647	5	116	1	5	6	4	2	15	1	4421.418927	0.1750544
4422.277158	1.199864	5	117	1	5	6	5	1	15	1	4422.627387	0.5330664
4423.485302	1.1915443	5	118	1	5	6	6	1	15	0	4423.826942	0.3167047
4424.685133	1.1914956	5	119	1	5	6	7	2	15	0	4425.026808	0.208378
4425.884928	1.1915467	5	120	1	5	6	8	1	15	0	4426.226587	0.716625
4427.084765	1.1915508	5	121	1	5	6	9	2	15	1	4427.426425	0.2167036
4428.284667	1.1914527	5	122	1	5	6	10	2	15	0	4428.626259	0.8416275
4429.484449	1.1915688	5	123	1	5	6	11	2	15	n/a	4429.826149	n/a
4430.684311	1.1915344	5	124	1	5	6	12	2	15	0	4431.025949	0.3750195
4431.884172	1.1914988	5	125	1	5	6	13	1	15	1	4432.2258	0.541665
4433.083963	1.1998897	5	126	1	5	6	14	1	15	1	4433.433959	0.5583123
4434.292133	1.1998863	5	127	1	5	6	15	2	14	1	4434.633826	0.5916377
4435.500304	1.1915528	5	128	1	5	6	16	1	14	n/a	4435.841967	n/a
4436.700143	1.1999038	5	129	1	5	6	17	1	15	0	4437.041831	0.316649
4437.908313	1.2165526	5	130	1	5	6	18	1	15	1	4438.249974	0.1917378
4439.133149	1.1915852	5	131	1	5	6	19	1	15	1	4439.474849	0.0583055
4440.332995	1.1915643	5	132	1	5	6	20	2	15	0	4440.674658	0.5499722
4441.532837	1.1915407	5	133	1	5	6	21	2	15	n/a	4441.874482	n/a
4442.732663	1.1915546	5	134	1	5	6	22	1	15	n/a	4443.074321	n/a
4443.932498	1.1915494	5	135	1	5	6	23	1	15	n/a	4444.274165	n/a
4445.132337	1.1915495	5	136	1	5	6	24	2	15	n/a	4445.474005	n/a
4446.332175	1.1915657	5	137	1	5	6	25	1	15	n/a	4446.673861	n/a
4447.532014	1.199906	5	138	1	5	6	26	1	15	1	4447.873677	0.5249779
4448.740196	1.1915515	5	139	1	5	6	27	1	15	n/a	4449.081845	n/a
4449.940026	1.1915226	5	140	1	5	6	28	2	15	1	4450.281689	0.699958
4451.139863	1.1998981	5	141	1	5	6	29	2	15	n/a	4451.489863	n/a
4452.348049	1.1915034	5	142	1	5	6	30	2	14	1	4452.689693	0.7166226
4453.547867	1.1915547	5	143	1	5	6	31	1	14	1	4453.889552	0.5832866
4454.747707	1.1915578	5	144	1	5	6	32	1	14	n/a	4455.089372	n/a
4455.947819	1.1912728	5	145	1	9	7	1	3	14	n/a	n/a	n/a
4457.14737	1.1915708	5	146	1	9	7	2	3	14	n/a	n/a	n/a
4458.347225	1.191599	5	147	1	9	7	3	3	14	n/a	n/a	n/a
4459.547102	1.1915069	5	148	1	9	7	4	3	14	n/a	n/a	n/a
4460.746887	1.1915675	5	149	1	9	7	5	3	14	n/a	n/a	n/a
4461.946722	1.1915923	5	150	1	9	7	6	3	14	n/a	n/a	n/a
4463.146585	1.1915558	5	151	1	9	7	7	3	14	n/a	n/a	n/a
4464.346399	1.1920511	5	152	1	9	7	8	3	14	n/a	n/a	n/a
4465.54671	1.1994179	5	153	1	9	7	9	3	14	n/a	n/a	n/a
4466.754411	1.1915668	5	154	1	9	7	10	3	14	n/a	n/a	n/a
4467.954234	1.1915598	5	155	1	9	7	11	3	14	n/a	n/a	n/a
4469.154072	1.1915658	5	156	1	9	7	12	3	14	n/a	n/a	n/a
4470.353909	1.1916274	5	157	1	9	7	13	3	14	n/a	n/a	n/a
4471.554181	1.191176	5	158	1	9	7	14	3	14	n/a	n/a	n/a
4472.753642	1.1915101	5	159	1	9	7	15	3	14	n/a	n/a	n/a
4473.953426	1.1915579	5	160	1	9	7	16	3	14	n/a	n/a	n/a
4475.161606	1.1915621	5	161	1	7	8	1	1	14	1	4475.50324	0.5416637
4476.361454	1.1915712	5	162	1	7	8	2	2	13	1	4476.703121	0.46665
4477.561315	1.1999106	5	163	1	7	8	3	1	13	1	4477.903045	0.4421316
4478.769492	1.1998953	5	164	1	7	8	4	1	13	1	4479.111154	0.5166579
4479.977654	1.1998918	5	165	1	7	8	5	1	12	1	4480.319325	0.5416566
4481.185811	1.1915923	5	166	1	7	8	6	1	12	1	4481.527484	0.508323
4482.385687	1.1998496	5	167	1	7	8	7	2	12	1	4482.727341	0.5999392
4483.593834	1.1998991	5	168	1	7	8	8	1	11	1	4483.943888	0.5166055
4484.802024	1.1999046	5	169	1	7	8	9	1	11	1	4485.143683	0.4833147
4486.010179	1.1915588	5	170	1	7	8	10	2	11	1	4486.351859	0.6083091
4487.210018	1.1999117	5	171	1	7	8	11	2	10	1	4487.551684	0.558704
4488.418209	1.1998701	5	172	1	7	8	12	1	10	1	4488.759865	0.5421059
4489.626364	1.1915825	5	173	1	7	8	13	1	10	1	4489.968027	0.4833214
4490.826199	1.1915451	5	174	1	7	8	14	1	9	1	4491.167892	0.6249424
4492.026039	1.1915752	5	175	1	7	8	15	1	9	n/a	4492.367707	n/a
4493.225877	1.1998955	5	176	1	7	8	16	2	9	n/a	4493.575876	n/a
4494.434033	1.2087113	5	177	1	7	8	17	1	9	1	4494.792363	0.683311
4495.651012	1.199393	5	178	1	7	8	18	2	9	1	4496.000589	0.8249158
4496.85874	1.1915241	5	179	1	7	8	19	2	9	n/a	4497.200401	n/a
4498.058546	1.1915422	5	180	1	7	8	20	1	9	n/a	4498.400246	n/a
4499.258375	1.1999223	5	181	1	7	8	21	2	10	0	4499.600024	0.4666571
4500.466532	1.1915724	5	182	1	7	8	22	2	10	1	4500.808207	0.441655
4501.666371	1.191549	5	183	1	7	8	23	1	10	1	4502.008032	0.7499627
4502.866209	1.1915507	5	184	1	7	8	24	2	9	1	4503.207877	0.5833112
4504.066048	1.1915324	5	185	1	7	8	25	2	9	1	4504.407707	0.6832972
4505.265892	1.1915483	5	186	1	7	8	26	2	9	1	4505.607629	0.5749067
4506.465762	1.1915562	5	187	1	7	8	27	2	8	1	4506.807405	0.7999551
4507.665596	1.1998511	5	188	1	7	8	28	1	8	1	4508.015562	0.6666664
4508.873733	1.191551	5	189	1	7	8	29	1	8	1	4509.215396	0.6166491
4510.073582	1.1915301	5	190	1	7	8	30	1	7	1	4510.415246	0.6749601
4511.273412	1.1915607	5	191	1	7	8	31	1	7	1	4511.615068	0.6666735
4512.473252	1.1915585	5	192	1	7	8	32	2	7	1	4512.815278	0.6079457
4513.673103	1.191543	5	193	1	9	9	1	3	7	n/a	n/a	n/a
4514.872966	1.1915068	5	194	1	9	9	2	3	7	n/a	n/a	n/a
4516.072757	1.1915922	5	195	1	9	9	3	3	7	n/a	n/a	n/a
4517.272598	1.1915376	5	196	1	9	9	4	3	7	n/a	n/a	n/a
4518.472419	1.1915534	5	197	1	9	9	5	3	7	n/a	n/a	n/a
4519.672256	1.1915556	5	198	1	9	9	6	3	7	n/a	n/a	n/a
4520.872115	1.1915663	5	199	1	9	9	7	3	7	n/a	n/a	n/a
4522.072032	1.191458	5	200	1	9	9	8	3	7	n/a	n/a	n/a
4523.271772	1.1915553	5	201	1	9	9	9	3	7	n/a	n/a	n/a
4524.471613	1.191564	5	202	1	9	9	10	3	7	n/a	n/a	n/a
4525.671451	1.1916595	5	203	1	9	9	11	3	7	n/a	n/a	n/a
4526.871287	1.1915599	5	204	1	9	9	12	3	7	n/a	n/a	n/a
4528.071127	1.1915768	5	205	1	9	9	13	3	7	n/a	n/a	n/a
4529.270981	1.1915608	5	206	1	9	9	14	3	7	n/a	n/a	n/a
4530.47082	1.1915803	5	207	1	9	9	15	3	7	n/a	n/a	n/a
4531.670674	1.1915554	5	208	1	9	9	16	3	7	n/a	n/a	n/a
