onset	duration	run_number	trial_number	att_task	bar_direction	bar_period	bar_step	stim_noise_ori	stim_stair_val	response_val	probe_time	reaction_time
66772.01717	1.199374618	1	1	1	9	1	1	3	n/a	n/a	66772.91646	n/a
66773.21654	1.200065371	1	2	1	9	1	2	3	n/a	n/a	66774.1166	n/a
66774.41661	1.200060913	1	3	1	9	1	3	3	n/a	n/a	66775.31664	n/a
66775.61667	1.200113444	1	4	1	9	1	4	3	n/a	n/a	66776.51674	n/a
66776.81678	1.200068687	1	5	1	9	1	5	3	n/a	n/a	66777.71679	n/a
66778.01685	1.200085966	1	6	1	9	1	6	3	n/a	n/a	66778.91689	n/a
66779.21694	1.200059086	1	7	1	9	1	7	3	n/a	n/a	66780.11697	n/a
66780.417	1.200103497	1	8	1	9	1	8	3	n/a	n/a	66781.31709	n/a
66781.6171	1.200077283	1	9	1	9	1	9	3	n/a	n/a	66782.51718	n/a
66782.81718	1.200082107	1	10	1	9	1	10	3	n/a	n/a	66783.7172	n/a
66784.01726	1.200148075	1	11	1	9	1	11	3	n/a	n/a	66784.91727	n/a
66785.21741	1.200002506	1	12	1	9	1	12	3	n/a	n/a	66786.1174	n/a
66786.41741	1.200102833	1	13	1	9	1	13	3	n/a	n/a	66787.3175	n/a
66787.61751	1.199943853	1	14	1	9	1	14	3	n/a	n/a	66788.51754	n/a
66788.81746	1.200200361	1	15	1	9	1	15	3	n/a	n/a	66789.71768	n/a
66790.01766	1.200014566	1	16	1	9	1	16	3	n/a	n/a	66790.91773	n/a
66791.21767	1.200191251	1	17	1	1	2	1	1	n/a	1	66792.11783	0.113356729
66792.41786	1.200020804	1	18	1	1	2	2	1	n/a	1	66793.31792	0.017384134
66793.61788	1.200088464	1	19	1	1	2	3	2	n/a	1	66794.51796	-0.07718701501
66794.81797	1.200129499	1	20	1	1	2	4	2	n/a	1	66795.71807	-0.080523009
66796.0181	1.200081015	1	21	1	1	2	5	1	n/a	0	66796.91815	-0.089006336
66797.21818	1.200067082	1	22	1	1	2	6	1	n/a	1	66798.11825	0.010682425
66798.41825	1.200088226	1	23	1	1	2	7	1	n/a	1	66799.31962	0.005900725999
66799.61834	1.200084199	1	24	1	1	2	8	2	n/a	1	66800.51839	0.01064641
66800.81842	1.200093417	1	25	1	1	2	9	1	n/a	1	66801.71852	0.019656449
66802.01852	1.200084693	1	26	1	1	2	10	2	n/a	1	66802.91847	0.010698952
66803.2186	1.200083036	1	27	1	1	2	11	2	n/a	1	66804.11866	-0.082799333
66804.41868	1.200086955	1	28	1	1	2	12	1	n/a	1	66805.31875	-0.09315674999
66805.61877	1.200066675	1	29	1	1	2	13	1	n/a	1	66806.51879	-0.08032168201
66806.81884	1.200088341	1	30	1	1	2	14	1	n/a	1	66807.71891	-0.08053357901
66808.01893	1.20009582	1	31	1	1	2	15	1	n/a	1	66808.91896	-0.084095632
66809.21902	1.20004828	1	32	1	1	2	16	2	n/a	1	66810.11909	-0.080185139
66810.41907	1.200094397	1	33	1	1	2	17	2	n/a	1	66811.31913	-0.093300651
66811.61917	1.200102831	1	34	1	1	2	18	1	n/a	1	66812.51924	-0.09280386
66812.81927	1.199901793	1	35	1	1	2	19	1	n/a	1	66813.71921	0.010603355
66814.01917	1.200201532	1	36	1	1	2	20	2	n/a	1	66814.9194	0.010630296
66815.21937	1.200117875	1	37	1	1	2	21	1	n/a	0	66816.1195	0.010643584
66816.41949	1.200103063	1	38	1	1	2	22	1	n/a	0	66817.31955	0.119385909
66817.61959	1.200081425	1	39	1	1	2	23	1	n/a	0	66818.51963	0.210550942
66818.81967	1.200107252	1	40	1	1	2	24	1	n/a	1	66819.71974	0.110497185
66820.01978	1.200047482	1	41	1	1	2	25	1	n/a	1	66820.91985	0.01980952
66821.21983	1.200085115	1	42	1	1	2	26	1	n/a	1	66822.11986	0.010530812
66822.41991	1.200090268	1	43	1	1	2	27	2	n/a	1	66823.31994	0.21031801
66823.62	1.200113038	1	44	1	1	2	28	1	n/a	1	66824.52006	0.110506122
66824.82012	1.20002122	1	45	1	1	2	29	2	n/a	1	66825.72011	0.219938322
66826.02014	1.200132972	1	46	1	1	2	30	1	n/a	n/a	66826.92024	n/a
66827.22027	1.200048317	1	47	1	1	2	31	2	n/a	1	66828.12022	0.210855664
66828.42032	1.200093961	1	48	1	1	2	32	2	n/a	n/a	66829.32035	n/a
66829.62041	1.200104572	1	49	1	9	3	1	3	n/a	n/a	66830.52047	n/a
66830.82052	1.200013818	1	50	1	9	3	2	3	n/a	n/a	66831.72054	n/a
66832.02053	1.20013054	1	51	1	9	3	3	3	n/a	n/a	66832.92064	n/a
66833.22066	1.200101366	1	52	1	9	3	4	3	n/a	n/a	66834.12073	n/a
66834.42076	1.200071074	1	53	1	9	3	5	3	n/a	n/a	66835.32076	n/a
66835.62083	1.200080136	1	54	1	9	3	6	3	n/a	n/a	66836.52085	n/a
66836.82091	1.200030209	1	55	1	9	3	7	3	n/a	n/a	66837.72096	n/a
66838.02094	1.200117931	1	56	1	9	3	8	3	n/a	n/a	66838.92106	n/a
66839.22106	1.200098055	1	57	1	9	3	9	3	n/a	n/a	66840.12113	n/a
66840.42116	1.200099731	1	58	1	9	3	10	3	n/a	n/a	66841.32118	n/a
66841.62126	1.200056882	1	59	1	9	3	11	3	n/a	n/a	66842.52129	n/a
66842.82132	1.20004442	1	60	1	9	3	12	3	n/a	n/a	66843.72138	n/a
66844.02136	1.200113485	1	61	1	9	3	13	3	n/a	n/a	66844.92146	n/a
66845.22148	1.200130854	1	62	1	9	3	14	3	n/a	n/a	66846.12155	n/a
66846.42161	1.200075487	1	63	1	9	3	15	3	n/a	n/a	66847.32159	n/a
66847.62168	1.200036772	1	64	1	9	3	16	3	n/a	n/a	66848.52159	n/a
66848.82172	1.200109475	1	65	1	3	4	1	1	n/a	1	66849.72178	0.219800262
66850.02183	1.200060554	1	66	1	3	4	2	1	n/a	0	66850.92187	0.21036452
66851.22189	1.200191155	1	67	1	3	4	3	1	n/a	n/a	66852.12193	n/a
66852.42208	1.199995242	1	68	1	3	4	4	2	n/a	1	66853.32206	0.210822278
66853.62207	1.200082722	1	69	1	3	4	5	1	n/a	1	66854.52212	0.110840234
66854.82216	1.200072674	1	70	1	3	4	6	1	n/a	0	66855.72221	0.121574871
66856.02223	1.200052065	1	71	1	3	4	7	1	n/a	1	66856.92229	0.010868048
66857.22228	1.200083076	1	72	1	3	4	8	2	n/a	1	66858.12232	0.010849004
66858.42237	1.200104675	1	73	1	3	4	9	2	n/a	0	66859.32245	-0.078421959
66859.62247	1.200109036	1	74	1	3	4	10	1	n/a	1	66860.52255	-0.089208481
66860.82258	1.200045921	1	75	1	3	4	11	1	n/a	1	66861.72263	-0.0785954
66862.02263	1.200092885	1	76	1	3	4	12	1	n/a	1	66862.92268	-0.089118431
66863.22272	1.183425559	1	77	1	3	4	13	1	n/a	1	66864.12278	-0.191111968
66864.40614	1.200109303	1	78	1	3	4	14	1	n/a	1	66865.30621	-0.078472029
66865.60625	1.200045261	1	79	1	3	4	15	1	n/a	1	66866.50628	-0.07846175
66866.8063	1.200098447	1	80	1	3	4	16	2	n/a	1	66867.70638	-0.078669386
66868.0064	1.200050673	1	81	1	3	4	17	1	n/a	1	66868.90726	0.005625589998
66869.20645	1.200126758	1	82	1	3	4	18	2	n/a	1	66870.10652	-0.08913375401
66870.40657	1.200032567	1	83	1	3	4	19	2	n/a	0	66871.30649	-0.178498608
66871.60661	1.200118752	1	84	1	3	4	20	2	n/a	1	66872.50657	-0.189090323
66872.80673	1.200097426	1	85	1	3	4	21	1	n/a	0	66873.70678	-0.078991227
66874.00682	1.200082707	1	86	1	3	4	22	2	n/a	1	66874.90688	-0.08917846599
66875.20691	1.20004956	1	87	1	3	4	23	2	n/a	0	66876.10694	-0.089055759
66876.40695	1.200121653	1	88	1	3	4	24	1	n/a	0	66877.30702	-0.078669915
66877.60708	1.20007206	1	89	1	3	4	25	2	n/a	1	66878.50712	0.021476019
66878.80715	1.200074795	1	90	1	3	4	26	2	n/a	1	66879.70721	0.010792524
66880.00722	1.200046024	1	91	1	3	4	27	2	n/a	1	66880.90727	-0.08913141899
66881.20727	1.200122737	1	92	1	3	4	28	2	n/a	0	66882.10737	0.021213366
66882.40739	1.200066904	1	93	1	3	4	29	1	n/a	0	66883.30743	-0.075260165
66883.60746	1.200063184	1	94	1	3	4	30	1	n/a	1	66884.50755	0.02133008699
66884.80752	1.18493144	1	95	1	3	4	31	1	n/a	1	66885.7076	-0.080720614
66885.99245	1.198577461	1	96	1	3	4	32	2	n/a	1	66886.89105	0.01044057401
66887.19103	1.200107123	1	97	1	9	5	1	3	n/a	n/a	66888.09109	n/a
66888.39114	1.200082782	1	98	1	9	5	2	3	n/a	n/a	66889.29117	n/a
66889.59122	1.200075136	1	99	1	9	5	3	3	n/a	n/a	66890.49128	n/a
66890.7913	1.200110529	1	100	1	9	5	4	3	n/a	n/a	66891.69136	n/a
66891.99141	1.200067363	1	101	1	9	5	5	3	n/a	n/a	66892.89141	n/a
66893.19147	1.200079151	1	102	1	9	5	6	3	n/a	n/a	66894.09153	n/a
66894.39155	1.200058041	1	103	1	9	5	7	3	n/a	n/a	66895.29157	n/a
66895.59161	1.200053654	1	104	1	9	5	8	3	n/a	n/a	66896.49172	n/a
66896.79167	1.200129188	1	105	1	9	5	9	3	n/a	n/a	66897.69177	n/a
66897.99179	1.200087595	1	106	1	9	5	10	3	n/a	n/a	66898.89186	n/a
66899.19188	1.200068836	1	107	1	9	5	11	3	n/a	n/a	66900.09193	n/a
66900.39195	1.200094911	1	108	1	9	5	12	3	n/a	n/a	66901.29203	n/a
66901.59205	1.200087815	1	109	1	9	5	13	3	n/a	n/a	66902.49211	n/a
66902.79213	1.2000651	1	110	1	9	5	14	3	n/a	n/a	66903.69217	n/a
66903.9922	1.200075797	1	111	1	9	5	15	3	n/a	n/a	66904.89229	n/a
66905.19227	1.200121864	1	112	1	9	5	16	3	n/a	n/a	66906.09234	n/a
66906.3924	1.20006243	1	113	1	5	6	1	2	n/a	1	66907.29243	0.109934202
66907.59246	1.200071482	1	114	1	5	6	2	1	n/a	1	66908.49253	0.019846273
66908.79253	1.200092934	1	115	1	5	6	3	2	n/a	1	66909.69258	0.110470111
66909.99262	1.200085132	1	116	1	5	6	4	1	n/a	1	66910.89269	0.010514248
66911.19271	1.200055913	1	117	1	5	6	5	2	n/a	1	66912.09277	0.110598985
66912.39276	1.200051254	1	118	1	5	6	6	1	n/a	1	66913.29284	0.011394705
66913.59282	1.200142252	1	119	1	5	6	7	2	n/a	0	66914.49295	0.01197900801
66914.79296	1.200086302	1	120	1	5	6	8	1	n/a	1	66915.69301	0.124764146
66915.99304	1.200037728	1	121	1	5	6	9	2	n/a	1	66916.89307	-0.0804637
66917.19308	1.199984102	1	122	1	5	6	10	1	n/a	0	66918.09317	-0.09293214201
66918.39307	1.200302738	1	123	1	5	6	11	1	n/a	1	66919.29309	0.018163691
66919.59337	1.199990973	1	124	1	5	6	12	1	n/a	1	66920.49333	-0.08931676199
66920.79336	1.200057947	1	125	1	5	6	13	1	n/a	1	66921.6934	-0.079939253
66921.99342	1.199992981	1	126	1	5	6	14	1	n/a	1	66922.8935	-0.079937881
66923.19341	1.200189635	1	127	1	5	6	15	1	n/a	1	66924.09358	-0.08375197
66924.3936	1.200096665	1	128	1	5	6	16	1	n/a	1	66925.29368	-0.08059124301
66925.5937	1.200089089	1	129	1	5	6	17	2	n/a	0	66926.49374	0.110659835
66926.79379	1.200048487	1	130	1	5	6	18	1	n/a	n/a	66927.69385	n/a
66927.99383	1.200129069	1	131	1	5	6	19	2	n/a	0	66928.89393	0.122364706
66929.19396	1.200068361	1	132	1	5	6	20	2	n/a	n/a	66930.094	n/a
66930.39403	1.200066759	1	133	1	5	6	21	2	n/a	0	66931.2941	0.120476364
66931.5941	1.200128011	1	134	1	5	6	22	2	n/a	0	66932.49418	0.122636224
66932.79423	1.200059931	1	135	1	5	6	23	1	n/a	0	66933.69426	0.009896618998
66933.99429	1.200072062	1	136	1	5	6	24	1	n/a	0	66934.89433	0.110568752
66935.19436	1.200098613	1	137	1	5	6	25	2	n/a	0	66936.09439	0.219340385
66936.39446	1.200069134	1	138	1	5	6	26	1	n/a	0	66937.29454	0.122646246
66937.59453	1.200091921	1	139	1	5	6	27	1	n/a	0	66938.49459	0.206261508
66938.79462	1.200084349	1	140	1	5	6	28	2	n/a	1	66939.69465	0.211357538
66939.9947	1.200014824	1	141	1	5	6	29	2	n/a	1	66940.89478	0.011134099
66941.19472	1.200154032	1	142	1	5	6	30	2	n/a	1	66942.09482	-0.083942524
66942.39487	1.20007589	1	143	1	5	6	31	1	n/a	1	66943.29492	0.010330705
66943.59495	1.200039142	1	144	1	5	6	32	2	n/a	1	66944.49499	0.010060292
66944.79499	1.200065627	1	145	1	9	7	1	3	n/a	n/a	66945.69504	n/a
66945.99505	1.200135002	1	146	1	9	7	2	3	n/a	n/a	66946.89517	n/a
66947.19519	1.199989442	1	147	1	9	7	3	3	n/a	n/a	66948.09526	n/a
66948.39518	1.200176488	1	148	1	9	7	4	3	n/a	n/a	66949.29532	n/a
66949.59535	1.200190548	1	149	1	9	7	5	3	n/a	n/a	66950.4954	n/a
66950.79554	1.199961315	1	150	1	9	7	6	3	n/a	n/a	66951.6955	n/a
66951.9955	1.20010173	1	151	1	9	7	7	3	n/a	n/a	66952.89557	n/a
66953.19561	1.200087165	1	152	1	9	7	8	3	n/a	n/a	66954.09568	n/a
66954.39569	1.200057998	1	153	1	9	7	9	3	n/a	n/a	66955.29573	n/a
66955.59575	1.200085961	1	154	1	9	7	10	3	n/a	n/a	66956.49579	n/a
66956.79584	1.20009006	1	155	1	9	7	11	3	n/a	n/a	66957.69593	n/a
66957.99593	1.200083757	1	156	1	9	7	12	3	n/a	n/a	66958.89601	n/a
66959.19601	1.200097915	1	157	1	9	7	13	3	n/a	n/a	66960.09608	n/a
66960.39611	1.200047307	1	158	1	9	7	14	3	n/a	n/a	66961.2961	n/a
66961.59616	1.200117263	1	159	1	9	7	15	3	n/a	n/a	66962.49624	n/a
66962.79627	1.200096385	1	160	1	9	7	16	3	n/a	n/a	66963.69635	n/a
66963.99637	1.200061281	1	161	1	7	8	1	2	n/a	1	66964.89642	0.015239106
66965.19643	1.200045521	1	162	1	7	8	2	2	n/a	1	66966.09651	-0.08932074301
66966.39648	1.20009529	1	163	1	7	8	3	2	n/a	1	66967.29658	-0.079045319
66967.59657	1.200105872	1	164	1	7	8	4	2	n/a	1	66968.49666	-0.179335943
66968.79668	1.199950429	1	165	1	7	8	5	1	n/a	0	66969.69679	-0.089227638
66969.99663	1.200171732	1	166	1	7	8	6	1	n/a	1	66970.89678	-0.08910915999
66971.1968	1.200112295	1	167	1	7	8	7	1	n/a	1	66972.09688	-0.089203757
66972.39691	1.200094757	1	168	1	7	8	8	2	n/a	1	66973.29699	-0.089168497
66973.59701	1.200093837	1	169	1	7	8	9	1	n/a	1	66974.49706	-0.07666624799
66974.7971	1.200100419	1	170	1	7	8	10	1	n/a	1	66975.6971	-0.08902731599
66975.9972	1.200073435	1	171	1	7	8	11	1	n/a	1	66976.89728	-0.078967719
66977.19728	1.200071298	1	172	1	7	8	12	2	n/a	0	66978.0973	-0.1789964
66978.39735	1.200045035	1	173	1	7	8	13	2	n/a	1	66979.29739	0.01084674601
66979.59739	1.200139668	1	174	1	7	8	14	1	n/a	1	66980.4975	-0.079179878
66980.79753	1.200040415	1	175	1	7	8	15	1	n/a	1	66981.69757	-0.078901694
66981.99757	1.20009252	1	176	1	7	8	16	1	n/a	1	66982.89766	-0.079033578
66983.19766	1.200107327	1	177	1	7	8	17	2	n/a	1	66984.09774	-0.08947835999
66984.39777	1.199994801	1	178	1	7	8	18	1	n/a	1	66985.29781	0.01103512099
66985.59777	1.200127228	1	179	1	7	8	19	2	n/a	1	66986.49791	0.010880858
66986.79789	1.200106998	1	180	1	7	8	20	2	n/a	1	66987.69796	-0.089644297
66987.998	1.20011428	1	181	1	7	8	21	1	n/a	1	66988.89816	-0.07853429401
66989.19811	1.200042499	1	182	1	7	8	22	1	n/a	1	66990.09815	-0.08905971701
66990.39816	1.200113818	1	183	1	7	8	23	1	n/a	1	66991.29823	-0.09246351999
66991.59827	1.200023339	1	184	1	7	8	24	2	n/a	1	66992.49828	-0.080251548
66992.79829	1.200140157	1	185	1	7	8	25	2	n/a	1	66993.6984	-0.08911113
66993.99843	1.200054601	1	186	1	7	8	26	1	n/a	1	66994.89848	-0.08912554801
66995.19849	1.200106761	1	187	1	7	8	27	2	n/a	1	66996.09855	0.021305872
66996.3986	1.200067774	1	188	1	7	8	28	1	n/a	1	66997.29948	0.02059168799
66997.59866	1.19999832	1	189	1	7	8	29	1	n/a	1	66998.4987	-0.080910007
66998.79866	1.200070135	1	190	1	7	8	30	2	n/a	0	66999.69882	0.121363665
66999.99873	1.200195105	1	191	1	7	8	31	2	n/a	1	67000.89886	0.210387729
67001.19893	1.199887902	1	192	1	7	8	32	1	n/a	1	67002.09897	0.110130222
67002.39882	1.200246532	1	193	1	9	9	1	3	n/a	n/a	67003.29905	n/a
67003.59906	1.200099826	1	194	1	9	9	2	3	n/a	n/a	67004.49907	n/a
67004.79916	1.200089525	1	195	1	9	9	3	3	n/a	n/a	67005.69921	n/a
67005.99925	1.200048802	1	196	1	9	9	4	3	n/a	n/a	67006.89933	n/a
67007.1993	1.200122713	1	197	1	9	9	5	3	n/a	n/a	67008.09941	n/a
67008.39942	1.200063742	1	198	1	9	9	6	3	n/a	n/a	67009.29944	n/a
67009.59949	1.200068526	1	199	1	9	9	7	3	n/a	n/a	67010.49958	n/a
67010.79955	1.20010539	1	200	1	9	9	8	3	n/a	n/a	67011.69966	n/a
67011.99966	1.200081704	1	201	1	9	9	9	3	n/a	n/a	67012.89972	n/a
67013.19974	1.200083109	1	202	1	9	9	10	3	n/a	n/a	67014.09979	n/a
67014.39982	1.200095415	1	203	1	9	9	11	3	n/a	n/a	67015.29987	n/a
67015.59992	1.200056461	1	204	1	9	9	12	3	n/a	n/a	67016.49998	n/a
67016.79998	1.200113014	1	205	1	9	9	13	3	n/a	n/a	67017.70005	n/a
67018.00009	1.200052455	1	206	1	9	9	14	3	n/a	n/a	67018.90015	n/a
67019.20014	1.200063822	1	207	1	9	9	15	3	n/a	n/a	67020.10022	n/a
67020.40021	1.200101431	1	208	1	9	9	16	3	n/a	n/a	67021.3003	n/a
