onset	duration	run_number	trial_number	att_task	bar_direction	bar_period	bar_step	stim_noise_ori	stim_stair_val	response_val	probe_time	reaction_time
1555985.966	1.198033854	1	1	1	9	1	1	3	n/a	n/a	n/a	n/a
1555987.164	1.207057046	1	2	1	9	1	2	3	n/a	n/a	n/a	n/a
1555988.371	1.1988578	1	3	1	9	1	3	3	n/a	n/a	n/a	n/a
1555989.57	1.198800085	1	4	1	9	1	4	3	n/a	n/a	n/a	n/a
1555990.769	1.198792079	1	5	1	9	1	5	3	n/a	n/a	n/a	n/a
1555991.967	1.198767736	1	6	1	9	1	6	3	n/a	n/a	n/a	n/a
1555993.166	1.198824082	1	7	1	9	1	7	3	n/a	n/a	n/a	n/a
1555994.365	1.198800918	1	8	1	9	1	8	3	n/a	n/a	n/a	n/a
1555995.564	1.198793285	1	9	1	9	1	9	3	n/a	n/a	n/a	n/a
1555996.763	1.198757215	1	10	1	9	1	10	3	n/a	n/a	n/a	n/a
1555997.961	1.1987158	1	11	1	9	1	11	3	n/a	n/a	n/a	n/a
1555999.16	1.1989171	1	12	1	9	1	12	3	n/a	n/a	n/a	n/a
1556000.359	1.1987193	1	13	1	9	1	13	3	n/a	n/a	n/a	n/a
1556001.558	1.198864285	1	14	1	9	1	14	3	n/a	n/a	n/a	n/a
1556002.757	1.198793579	1	15	1	9	1	15	3	n/a	n/a	n/a	n/a
1556003.955	1.198778236	1	16	1	9	1	16	3	n/a	n/a	n/a	n/a
1556005.154	1.198859485	1	17	1	1	2	1	1	9	1	1556005.554	0.5263983754
1556006.353	1.198751349	1	18	1	1	2	2	2	9	1	1556006.753	0.5068507211
1556007.552	1.198794376	1	19	1	1	2	3	1	9	1	1556007.951	0.5077098
1556008.751	1.19879397	1	20	1	1	2	4	1	8	1	1556009.15	0.6075725455
1556009.949	1.198796721	1	21	1	1	2	5	2	8	1	1556010.349	0.5087607
1556011.148	1.198801685	1	22	1	1	2	6	2	8	1	1556011.548	0.5073832029
1556012.347	1.198794955	1	23	1	1	2	7	2	7	1	1556012.747	0.607237
1556013.546	1.198797145	1	24	1	1	2	8	2	7	1	1556013.945	0.5287613363
1556014.744	1.198778415	1	25	1	1	2	9	2	7	1	1556015.144	0.6074770999
1556015.943	1.1988036	1	26	1	1	2	10	2	6	1	1556016.343	0.6068241149
1556017.142	1.1987708	1	27	1	1	2	11	1	6	1	1556017.542	0.5257258271
1556018.341	1.198826039	1	28	1	1	2	12	1	6	1	1556018.74	0.6335329153
1556019.54	1.198793	1	29	1	1	2	13	1	5	1	1556019.939	0.6304515305
1556020.738	1.198798561	1	30	1	1	2	14	2	5	1	1556021.138	0.6299655151
1556021.937	1.19879437	1	31	1	1	2	15	2	5	1	1556022.337	0.6316955001
1556023.136	1.19872693	1	32	1	1	2	16	2	4	1	1556023.535	0.6119901
1556024.335	1.198863009	1	33	1	1	2	17	2	4	1	1556024.734	0.6134895061
1556025.534	1.198794624	1	34	1	1	2	18	2	4	1	1556025.933	0.6121481
1556026.732	1.198796146	1	35	1	1	2	19	1	3	1	1556027.132	0.7337439002
1556027.931	1.198791621	1	36	1	1	2	20	1	3	1	1556028.331	0.7339826364
1556029.13	1.1987572	1	37	1	1	2	21	2	3	n/a	1556029.53	n/a
1556030.329	1.1988302	1	38	1	1	2	22	2	3	n/a	1556030.728	n/a
1556031.528	1.1987723	1	39	1	1	2	23	2	3	n/a	1556031.927	n/a
1556032.726	1.198824	1	40	1	1	2	24	1	3	n/a	1556033.126	n/a
1556033.925	1.198791	1	41	1	1	2	25	1	3	n/a	1556034.325	n/a
1556035.124	1.1986792	1	42	1	1	2	26	2	3	n/a	1556035.524	n/a
1556036.323	1.198923979	1	43	1	1	2	27	2	3	n/a	1556036.722	n/a
1556037.522	1.198788779	1	44	1	1	2	28	1	3	0	1556037.921	0.03434749995
1556038.72	1.198729042	1	45	1	1	2	29	1	4	1	1556039.12	0.4337259999
1556039.919	1.198861524	1	46	1	1	2	30	2	4	0	1556040.319	0.4129160999
1556041.118	1.198718076	1	47	1	1	2	31	1	5	1	1556041.517	0.4326601001
1556042.317	1.1987634	1	48	1	1	2	32	2	5	1	1556042.716	0.6109500604
1556043.515	1.198912118	1	49	1	9	3	1	3	n/a	n/a	n/a	n/a
1556044.714	1.198778582	1	50	1	9	3	2	3	n/a	n/a	n/a	n/a
1556045.913	1.1988066	1	51	1	9	3	3	3	n/a	n/a	n/a	n/a
1556047.112	1.1987511	1	52	1	9	3	4	3	n/a	n/a	n/a	n/a
1556048.311	1.1986986	1	53	1	9	3	5	3	n/a	n/a	n/a	n/a
1556049.509	1.198948009	1	54	1	9	3	6	3	n/a	n/a	n/a	n/a
1556050.708	1.19878453	1	55	1	9	3	7	3	n/a	n/a	n/a	n/a
1556051.907	1.1987912	1	56	1	9	3	8	3	n/a	n/a	n/a	n/a
1556053.106	1.198799749	1	57	1	9	3	9	3	n/a	n/a	n/a	n/a
1556054.305	1.198825412	1	58	1	9	3	10	3	n/a	n/a	n/a	n/a
1556055.504	1.198766733	1	59	1	9	3	11	3	n/a	n/a	n/a	n/a
1556056.702	1.198792467	1	60	1	9	3	12	3	n/a	n/a	n/a	n/a
1556057.901	1.1987911	1	61	1	9	3	13	3	n/a	n/a	n/a	n/a
1556059.1	1.19880154	1	62	1	9	3	14	3	n/a	n/a	n/a	n/a
1556060.299	1.198788209	1	63	1	9	3	15	3	n/a	n/a	n/a	n/a
1556061.497	1.198679052	1	64	1	9	3	16	3	n/a	n/a	n/a	n/a
1556062.696	1.198916994	1	65	1	3	4	1	2	5	1	1556063.096	0.4412993756
1556063.895	1.198793933	1	66	1	3	4	2	1	4	1	1556064.295	0.5295539
1556065.094	1.198795752	1	67	1	3	4	3	2	4	0	1556065.493	0.6132253001
1556066.293	1.198800021	1	68	1	3	4	4	1	5	1	1556066.692	0.6130839002
1556067.491	1.198794258	1	69	1	3	4	5	1	5	1	1556067.891	0.6132588061
1556068.69	1.198750742	1	70	1	3	4	6	1	5	1	1556069.09	0.6141559754
1556069.889	1.198837079	1	71	1	3	4	7	2	4	1	1556070.289	0.6130118
1556071.088	1.1987962	1	72	1	3	4	8	2	4	0	1556071.487	0.6093403001
1556072.287	1.198754821	1	73	1	3	4	9	1	5	1	1556072.686	0.5132884365
1556073.485	1.198834573	1	74	1	3	4	10	1	5	1	1556073.885	0.5296539001
1556074.684	1.198793727	1	75	1	3	4	11	2	5	1	1556075.084	0.5477053029
1556075.883	1.1987736	1	76	1	3	4	12	1	4	1	1556076.283	0.5294889
1556077.082	1.1988218	1	77	1	3	4	13	2	4	0	1556077.481	0.5291498001
1556078.281	1.1987716	1	78	1	3	4	14	2	5	1	1556078.68	0.4133778
1556079.479	1.1986336	1	79	1	3	4	15	2	5	0	1556079.879	0.4140462999
1556080.678	1.198981279	1	80	1	3	4	16	1	6	1	1556081.078	0.4085365001
1556081.877	1.198794439	1	81	1	3	4	17	2	6	1	1556082.277	0.5511928999
1556083.076	1.1987952	1	82	1	3	4	18	2	6	1	1556083.475	0.5198956998
1556084.275	1.198791491	1	83	1	3	4	19	2	5	1	1556084.674	0.629925
1556085.473	1.198832391	1	84	1	3	4	20	1	5	1	1556085.873	0.5240413453
1556086.672	1.1987138	1	85	1	3	4	21	1	5	1	1556087.072	0.5310376456
1556087.871	1.198845558	1	86	1	3	4	22	1	4	1	1556088.271	0.5313542271
1556089.07	1.198792942	1	87	1	3	4	23	2	4	1	1556089.469	0.6294002
1556090.269	1.1987369	1	88	1	3	4	24	1	4	1	1556090.668	0.6294237
1556091.467	1.1988563	1	89	1	3	4	25	1	3	1	1556091.867	0.7129588455
1556092.666	1.1986836	1	90	1	3	4	26	2	3	n/a	1556093.066	n/a
1556093.865	1.198907418	1	91	1	3	4	27	2	3	1	1556094.265	-0.07003800012
1556095.064	1.198792206	1	92	1	3	4	28	2	3	0	1556095.463	0.1289039
1556096.263	1.198603776	1	93	1	3	4	29	1	4	0	1556096.662	0.04868464242
1556097.461	1.198989685	1	94	1	3	4	30	2	5	1	1556097.861	0.229271
1556098.66	1.198784215	1	95	1	3	4	31	2	5	1	1556099.06	0.3298128999
1556099.859	1.1987819	1	96	1	3	4	32	1	5	0	1556100.259	0.6293749665
1556101.058	1.198814294	1	97	1	9	5	1	3	n/a	n/a	n/a	n/a
1556102.257	1.19879877	1	98	1	9	5	2	3	n/a	n/a	n/a	n/a
1556103.455	1.198735836	1	99	1	9	5	3	3	n/a	n/a	n/a	n/a
1556104.654	1.1987657	1	100	1	9	5	4	3	n/a	n/a	n/a	n/a
1556105.853	1.1988484	1	101	1	9	5	5	3	n/a	n/a	n/a	n/a
1556107.052	1.198832148	1	102	1	9	5	6	3	n/a	n/a	n/a	n/a
1556108.251	1.198795376	1	103	1	9	5	7	3	n/a	n/a	n/a	n/a
1556109.449	1.198793576	1	104	1	9	5	8	3	n/a	n/a	n/a	n/a
1556110.648	1.1987207	1	105	1	9	5	9	3	n/a	n/a	n/a	n/a
1556111.847	1.198879848	1	106	1	9	5	10	3	n/a	n/a	n/a	n/a
1556113.046	1.19878263	1	107	1	9	5	11	3	n/a	n/a	n/a	n/a
1556114.244	1.198795745	1	108	1	9	5	12	3	n/a	n/a	n/a	n/a
1556115.443	1.198800576	1	109	1	9	5	13	3	n/a	n/a	n/a	n/a
1556116.642	1.1987872	1	110	1	9	5	14	3	n/a	n/a	n/a	n/a
1556117.841	1.1987571	1	111	1	9	5	15	3	n/a	n/a	n/a	n/a
1556119.04	1.198849224	1	112	1	9	5	16	3	n/a	n/a	n/a	n/a
1556120.238	1.198790873	1	113	1	5	6	1	2	6	1	1556120.638	0.5112278999
1556121.437	1.198787003	1	114	1	5	6	2	1	6	1	1556121.837	0.6114014364
1556122.636	1.198795	1	115	1	5	6	3	1	6	1	1556123.036	0.6117608
1556123.835	1.1986861	1	116	1	5	6	4	1	5	1	1556124.234	0.6123473605
1556125.034	1.198877	1	117	1	5	6	5	2	5	0	1556125.433	0.4288294755
1556126.232	1.1987331	1	118	1	5	6	6	1	6	0	1556126.632	0.4434732755
1556127.431	1.198886964	1	119	1	5	6	7	1	7	1	1556127.831	0.5115268999
1556128.63	1.198795891	1	120	1	5	6	8	2	7	1	1556129.03	0.5118618
1556129.829	1.1987951	1	121	1	5	6	9	2	7	0	1556130.228	0.6120207
1556131.028	1.198807654	1	122	1	5	6	10	2	8	1	1556131.427	0.5119085058
1556132.226	1.19879053	1	123	1	5	6	11	2	8	1	1556132.626	0.512202021
1556133.425	1.198788545	1	124	1	5	6	12	1	8	1	1556133.825	0.4278686999
1556134.624	1.198651915	1	125	1	5	6	13	1	7	1	1556135.024	0.443324521
1556135.823	1.1989409	1	126	1	5	6	14	2	7	1	1556136.222	0.5118928
1556137.022	1.1986824	1	127	1	5	6	15	1	7	1	1556137.421	0.4141079001
1556138.22	1.198912188	1	128	1	5	6	16	2	6	1	1556138.62	0.5138810968
1556139.419	1.198787336	1	129	1	5	6	17	2	6	1	1556139.819	0.5119847152
1556140.618	1.456877533	1	130	1	5	6	18	1	6	1	1556141.018	0.4519161
1556142.075	1.198794042	1	131	1	5	6	19	2	5	1	1556142.474	0.3122427
1556143.274	1.1987413	1	132	1	5	6	20	2	5	1	1556143.673	0.5120367
1556144.472	1.198843864	1	133	1	5	6	21	1	5	1	1556144.872	0.5120054001
1556145.671	1.198803133	1	134	1	5	6	22	2	4	1	1556146.071	0.6117644911
1556146.87	1.19879103	1	135	1	5	6	23	2	4	1	1556147.27	0.7285319909
1556148.069	1.198796997	1	136	1	5	6	24	2	4	1	1556148.468	0.6137512999
1556149.268	1.19879176	1	137	1	5	6	25	2	3	1	1556149.667	0.6119929
1556150.466	1.198765715	1	138	1	5	6	26	1	3	0	1556150.866	0.7145248454
1556151.665	1.198822394	1	139	1	5	6	27	1	4	n/a	1556152.065	n/a
1556152.864	1.198802161	1	140	1	5	6	28	2	4	n/a	1556153.264	n/a
1556154.063	1.198788645	1	141	1	5	6	29	1	4	0	1556154.462	0.5278447999
1556155.262	1.198788	1	142	1	5	6	30	1	5	1	1556155.661	0.5293659
1556156.46	1.1988036	1	143	1	5	6	31	2	5	1	1556156.86	0.611498215
1556157.659	1.198804803	1	144	1	5	6	32	1	5	1	1556158.059	0.6110836
1556158.858	1.1987845	1	145	1	9	7	1	3	n/a	n/a	n/a	n/a
1556160.057	1.198797597	1	146	1	9	7	2	3	n/a	n/a	n/a	n/a
1556161.256	1.1986261	1	147	1	9	7	3	3	n/a	n/a	n/a	n/a
1556162.454	1.1989384	1	148	1	9	7	4	3	n/a	n/a	n/a	n/a
1556163.653	1.1987532	1	149	1	9	7	5	3	n/a	n/a	n/a	n/a
1556164.852	1.1986969	1	150	1	9	7	6	3	n/a	n/a	n/a	n/a
1556166.051	1.198962479	1	151	1	9	7	7	3	n/a	n/a	n/a	n/a
1556167.25	1.198655521	1	152	1	9	7	8	3	n/a	n/a	n/a	n/a
1556168.448	1.198938885	1	153	1	9	7	9	3	n/a	n/a	n/a	n/a
1556169.647	1.198683615	1	154	1	9	7	10	3	n/a	n/a	n/a	n/a
1556170.846	1.198914464	1	155	1	9	7	11	3	n/a	n/a	n/a	n/a
1556172.045	1.198785346	1	156	1	9	7	12	3	n/a	n/a	n/a	n/a
1556173.244	1.198794391	1	157	1	9	7	13	3	n/a	n/a	n/a	n/a
1556174.442	1.1987979	1	158	1	9	7	14	3	n/a	n/a	n/a	n/a
1556175.641	1.1987848	1	159	1	9	7	15	3	n/a	n/a	n/a	n/a
1556176.84	1.198804939	1	160	1	9	7	16	3	n/a	n/a	n/a	n/a
1556178.039	1.198792994	1	161	1	7	8	1	1	4	1	1556178.438	0.4262439364
1556179.238	1.198639567	1	162	1	7	8	2	2	4	0	1556179.637	0.5299398
1556180.436	1.1989422	1	163	1	7	8	3	1	5	1	1556180.836	0.5152461
1556181.635	1.1987206	1	164	1	7	8	4	2	5	0	1556182.035	0.6308887999
1556182.834	1.198883555	1	165	1	7	8	5	1	6	1	1556183.234	0.6313391363
1556184.033	1.198790724	1	166	1	7	8	6	2	6	1	1556184.432	0.5133648515
1556185.231	1.19879713	1	167	1	7	8	7	2	6	0	1556185.631	0.5133614
1556186.43	1.198791491	1	168	1	7	8	8	2	7	1	1556186.83	0.5131776
1556187.629	1.198809509	1	169	1	7	8	9	1	7	1	1556188.029	0.4221770002
1556188.828	1.198715191	1	170	1	7	8	10	1	7	1	1556189.227	0.5135572911
1556190.027	1.198863379	1	171	1	7	8	11	1	6	0	1556190.426	0.427689591
1556191.225	1.198801015	1	172	1	7	8	12	2	7	0	1556191.625	0.5130830756
1556192.424	1.198794146	1	173	1	7	8	13	2	8	1	1556192.824	0.4294874
1556193.623	1.19880213	1	174	1	7	8	14	2	8	1	1556194.023	0.5134324001
1556194.822	1.19873033	1	175	1	7	8	15	2	8	1	1556195.221	0.5129367756
1556196.021	1.198853894	1	176	1	7	8	16	2	7	1	1556196.42	0.5136508755
1556197.219	1.198762106	1	177	1	7	8	17	1	7	1	1556197.619	0.7128832999
1556198.418	1.1987913	1	178	1	7	8	18	1	7	1	1556198.818	0.6281969999
1556199.617	1.198843379	1	179	1	7	8	19	2	6	1	1556200.017	0.6307302271
1556200.816	1.198761521	1	180	1	7	8	20	2	6	1	1556201.215	0.6296440456
1556202.015	1.198818485	1	181	1	7	8	21	2	6	1	1556202.414	0.6130723122
1556203.213	1.198760915	1	182	1	7	8	22	1	5	1	1556203.613	0.612987991
1556204.412	1.1988296	1	183	1	7	8	23	1	5	1	1556204.812	0.6298744425
1556205.611	1.1987934	1	184	1	7	8	24	2	5	1	1556206.011	0.6294468001
1556206.81	1.198840085	1	185	1	7	8	25	1	4	1	1556207.209	0.6299510999
1556208.009	1.198749885	1	186	1	7	8	26	2	4	1	1556208.408	0.6475703574
1556209.207	1.19872283	1	187	1	7	8	27	2	4	1	1556209.607	0.7129755998
1556210.406	1.1988604	1	188	1	7	8	28	2	3	1	1556210.806	0.7130233061
1556211.605	1.198799464	1	189	1	7	8	29	2	3	0	1556212.005	0.7131418455
1556212.804	1.19880193	1	190	1	7	8	30	2	4	1	1556213.203	0.7462017999
1556214.003	1.198795615	1	191	1	7	8	31	2	4	1	1556214.402	0.7288114
1556215.201	1.198789091	1	192	1	7	8	32	1	4	n/a	1556215.601	n/a
1556216.4	1.198865	1	193	1	9	9	1	3	n/a	n/a	n/a	n/a
1556217.599	1.1986643	1	194	1	9	9	2	3	n/a	n/a	n/a	n/a
1556218.798	1.198862794	1	195	1	9	9	3	3	n/a	n/a	n/a	n/a
1556219.997	1.198670806	1	196	1	9	9	4	3	n/a	n/a	n/a	n/a
1556221.195	1.198914494	1	197	1	9	9	5	3	n/a	n/a	n/a	n/a
1556222.394	1.19879903	1	198	1	9	9	6	3	n/a	n/a	n/a	n/a
1556223.593	1.198792945	1	199	1	9	9	7	3	n/a	n/a	n/a	n/a
1556224.792	1.198795615	1	200	1	9	9	8	3	n/a	n/a	n/a	n/a
1556225.991	1.198798358	1	201	1	9	9	9	3	n/a	n/a	n/a	n/a
1556227.189	1.198791382	1	202	1	9	9	10	3	n/a	n/a	n/a	n/a
1556228.388	1.198795249	1	203	1	9	9	11	3	n/a	n/a	n/a	n/a
1556229.587	1.198783227	1	204	1	9	9	12	3	n/a	n/a	n/a	n/a
1556230.786	1.1988134	1	205	1	9	9	13	3	n/a	n/a	n/a	n/a
1556231.985	1.198791864	1	206	1	9	9	14	3	n/a	n/a	n/a	n/a
1556233.183	1.198799976	1	207	1	9	9	15	3	n/a	n/a	n/a	n/a
1556234.382	1.198793985	1	208	1	9	9	16	3	n/a	n/a	n/a	n/a
