onset	duration	run_number	trial_number	bar_direction	bar_period	bar_step	stim_noise_ori	trial_offset	stim_stair_val	response_val	probe_time	reaction_time
24110.76659	1.2973099	1	1	9	1	1	3	24112.0639	n/a	n/a	n/a	n/a
24112.0639	1.2998423	1	2	9	1	2	3	24113.36374	n/a	n/a	n/a	n/a
24113.36374	1.299846556	1	3	9	1	3	3	24114.66359	n/a	n/a	n/a	n/a
24114.66359	1.299773844	1	4	9	1	4	3	24115.96336	n/a	n/a	n/a	n/a
24115.96336	1.2997844	1	5	9	1	5	3	24117.26315	n/a	n/a	n/a	n/a
24117.26315	1.299861	1	6	9	1	6	3	24118.56301	n/a	n/a	n/a	n/a
24118.56301	1.2998183	1	7	9	1	7	3	24119.86283	n/a	n/a	n/a	n/a
24119.86283	1.2998143	1	8	9	1	8	3	24121.16264	n/a	n/a	n/a	n/a
24121.16264	1.2998258	1	9	9	1	9	3	24122.46247	n/a	n/a	n/a	n/a
24122.46247	1.2998233	1	10	9	1	10	3	24123.76229	n/a	n/a	n/a	n/a
24123.76229	1.2998203	1	11	9	1	11	3	24125.06211	n/a	n/a	n/a	n/a
24125.06211	1.2998209	1	12	9	1	12	3	24126.36193	n/a	n/a	n/a	n/a
24126.36193	1.2998133	1	13	9	1	13	3	24127.66174	n/a	n/a	n/a	n/a
24127.66174	1.2998312	1	14	9	1	14	3	24128.96157	n/a	n/a	n/a	n/a
24128.96157	1.2996998	1	15	9	1	15	3	24130.26127	n/a	n/a	n/a	n/a
24130.26127	1.299941	1	16	9	1	16	3	24131.56122	n/a	n/a	n/a	n/a
24131.56122	1.2998211	1	17	1	2	1	2	24132.86104	9	n/a	24131.96121	n/a
24132.86104	1.2998224	1	18	1	2	2	2	24134.16086	9	1	24133.26098	0.8095579
24134.16086	1.2998125	1	19	1	2	3	2	24135.46067	9	n/a	24134.5608	n/a
24135.46067	1.2998396	1	20	1	2	4	1	24136.76051	9	n/a	24135.86067	n/a
24136.76051	1.2998122	1	21	1	2	5	2	24138.06032	9	1	24137.16049	0.01516174414
24138.06032	1.2998229	1	22	1	2	6	1	24139.36015	9	1	24138.46031	n/a
24139.36015	1.2998422	1	23	1	2	7	1	24140.65999	8	n/a	24139.76008	n/a
24140.65999	1.2997944	1	24	1	2	8	2	24141.95978	8	0	24141.05996	0.7133330441
24141.95978	1.2998272	1	25	1	2	9	2	24143.25961	9	0	24142.35973	0.7123711
24143.25961	1.2998204	1	26	1	2	10	2	24144.55943	10	0	24143.65955	0.7090874
24144.55943	1.2998061	1	27	1	2	11	1	24145.85924	11	0	24144.95939	0.6117771
24145.85924	1.2998336	1	28	1	2	12	2	24147.15907	12	n/a	24146.25919	n/a
24147.15907	1.2998569	1	29	1	2	13	2	24148.45893	12	n/a	24147.55902	n/a
24148.45893	1.2998337	1	30	1	2	14	1	24149.75876	12	n/a	24148.85888	n/a
24149.75876	1.2998143	1	31	1	2	15	2	24151.05858	12	1	24150.15864	0.112261
24151.05858	1.2996748	1	32	1	2	16	2	24152.35825	12	n/a	24151.4585	n/a
24152.35825	1.299925	1	33	1	2	17	1	24153.65817	12	1	24152.75831	0.8128806
24153.65817	1.299806	1	34	1	2	18	1	24154.95798	12	0	24154.05816	0.7131277
24154.95798	1.2998669	1	35	1	2	19	2	24156.25785	13	1	24155.35797	0.8111829
24156.25785	1.2997872	1	36	1	2	20	2	24157.55764	13	n/a	24156.65781	n/a
24157.55764	1.299861	1	37	1	2	21	2	24158.8575	13	n/a	24157.95763	n/a
24158.8575	1.2997875	1	38	1	2	22	2	24160.15728	13	0	24159.25738	0.8112187
24160.15728	1.2998363	1	39	1	2	23	1	24161.45712	14	n/a	24160.55724	n/a
24161.45712	1.2998015	1	40	1	2	24	1	24162.75692	14	n/a	24161.85705	n/a
24162.75692	1.2998253	1	41	1	2	25	1	24164.05675	14	n/a	24163.15687	n/a
24164.05675	1.2998117	1	42	1	2	26	2	24165.35656	14	0	24164.45668	0.8115644
24165.35656	1.2998257	1	43	1	2	27	2	24166.65638	15	0	24165.75651	0.7106246
24166.65638	1.299826	1	44	1	2	28	1	24167.95621	15	n/a	24167.05632	n/a
24167.95621	1.2998221	1	45	1	2	29	1	24169.25603	15	1	24168.35621	0.7099403883
24169.25603	1.2998355	1	46	1	2	30	1	24170.55587	15	1	24169.65598	0.6041862
24170.55587	1.2998018	1	47	1	2	31	2	24171.85567	15	0	24170.9558	0.8090001
24171.85567	1.2998226	1	48	1	2	32	2	24173.15549	15	0	24172.25562	0.5078585
24173.15549	1.2997134	1	49	9	3	1	3	24174.45521	n/a	n/a	n/a	n/a
24174.45521	1.2999364	1	50	9	3	2	3	24175.75514	n/a	n/a	n/a	n/a
24175.75514	1.2998385	1	51	9	3	3	3	24177.05498	n/a	n/a	n/a	n/a
24177.05498	1.2997567	1	52	9	3	4	3	24178.35474	n/a	n/a	n/a	n/a
24178.35474	1.2998934	1	53	9	3	5	3	24179.65463	n/a	n/a	n/a	n/a
24179.65463	1.299836634	1	54	9	3	6	3	24180.95447	n/a	n/a	n/a	n/a
24180.95447	1.299772866	1	55	9	3	7	3	24182.25424	n/a	n/a	n/a	n/a
24182.25424	1.299825	1	56	9	3	8	3	24183.55406	n/a	n/a	n/a	n/a
24183.55406	1.2998325	1	57	9	3	9	3	24184.8539	n/a	n/a	n/a	n/a
24184.8539	1.2998082	1	58	9	3	10	3	24186.15371	n/a	n/a	n/a	n/a
24186.15371	1.2997274	1	59	9	3	11	3	24187.45343	n/a	n/a	n/a	n/a
24187.45343	1.2999177	1	60	9	3	12	3	24188.75335	n/a	n/a	n/a	n/a
24188.75335	1.2998235	1	61	9	3	13	3	24190.05317	n/a	n/a	n/a	n/a
24190.05317	1.2998269	1	62	9	3	14	3	24191.353	n/a	n/a	n/a	n/a
24191.353	1.2998143	1	63	9	3	15	3	24192.65282	n/a	n/a	n/a	n/a
24192.65282	1.2998228	1	64	9	3	16	3	24193.95264	n/a	n/a	n/a	n/a
24193.95264	1.299869578	1	65	3	4	1	1	24195.25251	15	n/a	24194.35264	n/a
24195.25251	1.299620422	1	66	3	4	2	1	24196.55213	15	0	24195.65241	0.8121426
24196.55213	1.2999764	1	67	3	4	3	2	24197.8521	15	n/a	24196.95222	n/a
24197.8521	1.2998635	1	68	3	4	4	2	24199.15197	15	0	24198.25204	n/a
24199.15197	1.2998154	1	69	3	4	5	1	24200.45178	15	n/a	24199.55192	n/a
24200.45178	1.2997082	1	70	3	4	6	1	24201.75149	15	n/a	24200.85168	n/a
24201.75149	1.299941778	1	71	3	4	7	2	24203.05143	15	0	24202.15156	0.6185759
24203.05143	1.299816122	1	72	3	4	8	1	24204.35125	15	1	24203.45132	0.5208165
24204.35125	1.2998313	1	73	3	4	9	2	24205.65108	15	n/a	24204.75114	n/a
24205.65108	1.2997142	1	74	3	4	10	2	24206.9508	15	0	24206.05102	0.7239943
24206.9508	1.2999199	1	75	3	4	11	1	24208.25071	15	1	24207.3508	0.8213925
24208.25071	1.2998295	1	76	3	4	12	1	24209.55054	15	1	24208.65061	0.5213712
24209.55054	1.2997785	1	77	3	4	13	1	24210.85032	15	1	24209.95041	0.4242346
24210.85032	1.2998128	1	78	3	4	14	2	24212.15014	14	1	24211.25026	0.6252103
24212.15014	1.2996732	1	79	3	4	15	1	24213.44981	14	0	24212.55009	0.4207163
24213.44981	1.2999723	1	80	3	4	16	2	24214.74978	15	1	24213.8499	0.3222029
24214.74978	1.2998295	1	81	3	4	17	1	24216.04961	15	0	24215.14973	0.4219147
24216.04961	1.2998151	1	82	3	4	18	2	24217.34943	15	n/a	24216.44954	n/a
24217.34943	1.2998226	1	83	3	4	19	1	24218.64925	15	1	24217.74942	n/a
24218.64925	1.2998265	1	84	3	4	20	2	24219.94908	15	0	24219.04924	0.02552482207
24219.94908	1.2996875	1	85	3	4	21	1	24221.24876	15	0	24220.34902	0.1212756
24221.24876	1.300005568	1	86	3	4	22	2	24222.54877	15	1	24221.64889	0.8221642221
24222.54877	1.299773232	1	87	3	4	23	2	24223.84854	15	n/a	24222.94866	n/a
24223.84854	1.2998098	1	88	3	4	24	1	24225.14835	15	1	24224.24848	0.6120613
24225.14835	1.2998327	1	89	3	4	25	2	24226.44818	15	1	24225.54811	0.4256433
24226.44818	1.29986419	1	90	3	4	26	1	24227.74805	14	0	24226.84798	0.5211478
24227.74805	1.29967551	1	91	3	4	27	1	24229.04772	15	1	24228.14796	0.5248519
24229.04772	1.2999241	1	92	3	4	28	1	24230.34765	15	0	24229.44778	0.4247561
24230.34765	1.2998164	1	93	3	4	29	2	24231.64746	15	0	24230.74759	0.4079567
24231.64746	1.299836	1	94	3	4	30	2	24232.9473	15	1	24232.04741	0.2253398
24232.9473	1.299866534	1	95	3	4	31	2	24234.24717	15	0	24233.34723	0.4254151
24234.24717	1.299774466	1	96	3	4	32	2	24235.54694	15	1	24234.64707	0.5184695
24235.54694	1.2996679	1	97	9	5	1	3	24236.84661	n/a	n/a	n/a	n/a
24236.84661	1.2999735	1	98	9	5	2	3	24238.14658	n/a	n/a	n/a	n/a
24238.14658	1.2998137	1	99	9	5	3	3	24239.4464	n/a	n/a	n/a	n/a
24239.4464	1.2997046	1	100	9	5	4	3	24240.7461	n/a	n/a	n/a	n/a
24240.7461	1.2999478	1	101	9	5	5	3	24242.04605	n/a	n/a	n/a	n/a
24242.04605	1.2998234	1	102	9	5	6	3	24243.34587	n/a	n/a	n/a	n/a
24243.34587	1.2998263	1	103	9	5	7	3	24244.6457	n/a	n/a	n/a	n/a
24244.6457	1.2998125	1	104	9	5	8	3	24245.94551	n/a	n/a	n/a	n/a
24245.94551	1.2998355	1	105	9	5	9	3	24247.24535	n/a	n/a	n/a	n/a
24247.24535	1.299846678	1	106	9	5	10	3	24248.54519	n/a	n/a	n/a	n/a
24248.54519	1.299816922	1	107	9	5	11	3	24249.84501	n/a	n/a	n/a	n/a
24249.84501	1.2998317	1	108	9	5	12	3	24251.14484	n/a	n/a	n/a	n/a
24251.14484	1.2997597	1	109	9	5	13	3	24252.4446	n/a	n/a	n/a	n/a
24252.4446	1.2998904	1	110	9	5	14	3	24253.74449	n/a	n/a	n/a	n/a
24253.74449	1.2998133	1	111	9	5	15	3	24255.0443	n/a	n/a	n/a	n/a
24255.0443	1.2998215	1	112	9	5	16	3	24256.34413	n/a	n/a	n/a	n/a
24256.34413	1.2998238	1	113	5	6	1	2	24257.64395	15	n/a	24256.74408	n/a
24257.64395	1.2997611	1	114	5	6	2	2	24258.94371	15	n/a	24258.04367	n/a
24258.94371	1.2998373	1	115	5	6	3	1	24260.24355	15	1	24259.34373	0.7186444986
24260.24355	1.2998435	1	116	5	6	4	2	24261.54339	15	1	24260.64354	0.6190842
24261.54339	1.2997996	1	117	5	6	5	1	24262.84319	14	1	24261.94332	0.5192844
24262.84319	1.2998312	1	118	5	6	6	1	24264.14302	14	0	24263.24314	0.6157558
24264.14302	1.2998155	1	119	5	6	7	1	24265.44284	15	1	24264.54285	0.516461
24265.44284	1.2998219	1	120	5	6	8	1	24266.74266	15	0	24265.84278	0.8201675
24266.74266	1.2998218	1	121	5	6	9	1	24268.04248	15	1	24267.14261	0.616774
24268.04248	1.2998284	1	122	5	6	10	2	24269.34231	15	1	24268.44244	0.7234828
24269.34231	1.2998152	1	123	5	6	11	1	24270.64213	15	1	24269.74226	0.7165637
24270.64213	1.2998367	1	124	5	6	12	1	24271.94196	14	0	24271.04213	0.7204091207
24271.94196	1.2998362	1	125	5	6	13	2	24273.2418	15	1	24272.3419	0.6204561
24273.2418	1.2997918	1	126	5	6	14	2	24274.54159	15	1	24273.64171	0.7166895
24274.54159	1.299874678	1	127	5	6	15	2	24275.84147	15	1	24274.94158	0.5232346221
24275.84147	1.299777522	1	128	5	6	16	1	24277.14124	14	1	24276.24136	0.42383
24277.14124	1.2998232	1	129	5	6	17	1	24278.44107	14	0	24277.54121	0.4162936
24278.44107	1.2997852	1	130	5	6	18	2	24279.74085	15	0	24278.841	0.5239349
24279.74085	1.2996688	1	131	5	6	19	2	24281.04052	15	1	24280.14088	0.6202662221
24281.04052	1.300053478	1	132	5	6	20	1	24282.34057	15	1	24281.44065	0.5202434
24282.34057	1.299773222	1	133	5	6	21	1	24283.64035	15	0	24282.74047	0.6174835
24283.64035	1.299874378	1	134	5	6	22	1	24284.94022	15	0	24284.04029	0.5164901
24284.94022	1.299770622	1	135	5	6	23	1	24286.23999	15	1	24285.34012	0.5196199
24286.23999	1.2998236	1	136	5	6	24	1	24287.53982	15	1	24286.63999	0.4134255441
24287.53982	1.2997486	1	137	5	6	25	1	24288.83956	15	1	24287.93981	0.4242983221
24288.83956	1.2998974	1	138	5	6	26	1	24290.13946	14	1	24289.23963	0.5196720441
24290.13946	1.299868257	1	139	5	6	27	1	24291.43933	14	1	24290.53942	0.5121681
24291.43933	1.299730443	1	140	5	6	28	2	24292.73906	14	1	24291.83923	0.5166965
24292.73906	1.299865	1	141	5	6	29	1	24294.03892	13	0	24293.13906	0.624848
24294.03892	1.2998283	1	142	5	6	30	1	24295.33875	14	0	24294.43888	0.5243747
24295.33875	1.2998206	1	143	5	6	31	2	24296.63857	15	0	24295.7387	0.4243241
24296.63857	1.2998184	1	144	5	6	32	1	24297.93839	15	0	24297.03852	0.1163937
24297.93839	1.2998234	1	145	9	7	1	3	24299.23822	n/a	n/a	n/a	n/a
24299.23822	1.2998056	1	146	9	7	2	3	24300.53802	n/a	n/a	n/a	n/a
24300.53802	1.29988	1	147	9	7	3	3	24301.8379	n/a	n/a	n/a	n/a
24301.8379	1.2998195	1	148	9	7	4	3	24303.13772	n/a	n/a	n/a	n/a
24303.13772	1.2998269	1	149	9	7	5	3	24304.43755	n/a	n/a	n/a	n/a
24304.43755	1.2997403	1	150	9	7	6	3	24305.73729	n/a	n/a	n/a	n/a
24305.73729	1.2998422	1	151	9	7	7	3	24307.03713	n/a	n/a	n/a	n/a
24307.03713	1.2998801	1	152	9	7	8	3	24308.33701	n/a	n/a	n/a	n/a
24308.33701	1.2998199	1	153	9	7	9	3	24309.63683	n/a	n/a	n/a	n/a
24309.63683	1.2997841	1	154	9	7	10	3	24310.93661	n/a	n/a	n/a	n/a
24310.93661	1.2998166	1	155	9	7	11	3	24312.23643	n/a	n/a	n/a	n/a
24312.23643	1.299871556	1	156	9	7	12	3	24313.5363	n/a	n/a	n/a	n/a
24313.5363	1.299780344	1	157	9	7	13	3	24314.83608	n/a	n/a	n/a	n/a
24314.83608	1.2996893	1	158	9	7	14	3	24316.13577	n/a	n/a	n/a	n/a
24316.13577	1.2999536	1	159	9	7	15	3	24317.43573	n/a	n/a	n/a	n/a
24317.43573	1.299824	1	160	9	7	16	3	24318.73555	n/a	n/a	n/a	n/a
24318.73555	1.2998232	1	161	7	8	1	1	24320.03537	15	1	24319.13545	0.4243502
24320.03537	1.2998538	1	162	7	8	2	1	24321.33523	15	0	24320.43531	0.3252418
24321.33523	1.2997908	1	163	7	8	3	2	24322.63502	15	1	24321.73513	0.6188976
24322.63502	1.2998119	1	164	7	8	4	2	24323.93483	15	1	24323.03496	0.5195362
24323.93483	1.2998295	1	165	7	8	5	2	24325.23466	15	1	24324.33479	0.7195234
24325.23466	1.2998132	1	166	7	8	6	2	24326.53447	14	n/a	24325.63465	n/a
24326.53447	1.2998299	1	167	7	8	7	2	24327.8343	14	1	24326.93438	0.820447
24327.8343	1.2998631	1	168	7	8	8	1	24329.13416	14	1	24328.23424	0.8172407
24329.13416	1.299816	1	169	7	8	9	2	24330.43398	14	1	24329.53408	0.7169704
24330.43398	1.2997908	1	170	7	8	10	1	24331.73377	13	1	24330.83375	0.7277641
24331.73377	1.2998146	1	171	7	8	11	1	24333.03359	13	1	24332.13376	0.6280777441
24333.03359	1.299868734	1	172	7	8	12	2	24334.33346	13	1	24333.43354	0.5228599
24334.33346	1.299837512	1	173	7	8	13	2	24335.63329	12	1	24334.73341	0.6176778221
24335.63329	1.299768854	1	174	7	8	14	2	24336.93306	12	1	24336.03316	0.6279354
24336.93306	1.2998162	1	175	7	8	15	2	24338.23288	12	1	24337.33301	0.5274598
24338.23288	1.299872756	1	176	7	8	16	1	24339.53275	11	1	24338.63283	0.5209489
24339.53275	1.2998194	1	177	7	8	17	1	24340.83257	11	1	24339.93264	0.4209988
24340.83257	1.299821022	1	178	7	8	18	1	24342.13239	11	1	24341.23252	0.4102818662
24342.13239	1.2998214	1	179	7	8	19	1	24343.43221	10	1	24342.53223	0.5212311
24343.43221	1.299775622	1	180	7	8	20	1	24344.73199	10	1	24343.83218	0.4214662883
24344.73199	1.2998265	1	181	7	8	21	1	24346.03181	10	1	24345.13193	0.5280457
24346.03181	1.299815	1	182	7	8	22	2	24347.33163	9	1	24346.43176	0.6179854
24347.33163	1.2996968	1	183	7	8	23	1	24348.63133	9	0	24347.73157	0.4224253
24348.63133	1.2997277	1	184	7	8	24	2	24349.93105	10	n/a	24349.03144	n/a
24349.93105	1.3000386	1	185	7	8	25	1	24351.23109	10	1	24350.33126	0.616807
24351.23109	1.2998751	1	186	7	8	26	1	24352.53097	10	1	24351.63109	0.7210389
24352.53097	1.2997449	1	187	7	8	27	1	24353.83071	10	1	24352.93075	0.6209419
24353.83071	1.2998342	1	188	7	8	28	2	24355.13055	9	1	24354.23073	0.6169477
24355.13055	1.2998811	1	189	7	8	29	2	24356.43043	9	1	24355.53046	0.5167229
24356.43043	1.2997622	1	190	7	8	30	2	24357.73019	9	1	24356.83028	0.4166345
24357.73019	1.2998198	1	191	7	8	31	2	24359.03001	8	0	24358.13014	0.4235759
24359.03001	1.2998454	1	192	7	8	32	1	24360.32986	9	0	24359.42996	0.3225402
24360.32986	1.2998198	1	193	9	9	1	3	24361.62967	n/a	n/a	n/a	n/a
24361.62967	1.29982	1	194	9	9	2	3	24362.92949	n/a	n/a	n/a	n/a
24362.92949	1.2998228	1	195	9	9	3	3	24364.22932	n/a	n/a	n/a	n/a
24364.22932	1.2998301	1	196	9	9	4	3	24365.52915	n/a	n/a	n/a	n/a
24365.52915	1.299862756	1	197	9	9	5	3	24366.82901	n/a	n/a	n/a	n/a
24366.82901	1.299780344	1	198	9	9	6	3	24368.12879	n/a	n/a	n/a	n/a
24368.12879	1.2998234	1	199	9	9	7	3	24369.42861	n/a	n/a	n/a	n/a
24369.42861	1.2998182	1	200	9	9	8	3	24370.72843	n/a	n/a	n/a	n/a
24370.72843	1.299864478	1	201	9	9	9	3	24372.0283	n/a	n/a	n/a	n/a
24372.0283	1.299786522	1	202	9	9	10	3	24373.32808	n/a	n/a	n/a	n/a
24373.32808	1.2998164	1	203	9	9	11	3	24374.6279	n/a	n/a	n/a	n/a
24374.6279	1.2997921	1	204	9	9	12	3	24375.92769	n/a	n/a	n/a	n/a
24375.92769	1.2998488	1	205	9	9	13	3	24377.22754	n/a	n/a	n/a	n/a
24377.22754	1.299866534	1	206	9	9	14	3	24378.52741	n/a	n/a	n/a	n/a
24378.52741	1.299777366	1	207	9	9	15	3	24379.82718	n/a	n/a	n/a	n/a
24379.82718	1.2998274	1	208	9	9	16	3	24381.12701	n/a	n/a	n/a	n/a
