onset	duration	run_number	trial_number	att_task	bar_direction	bar_period	bar_step	stim_noise_ori	stim_stair_val	response_val	probe_time	reaction_time
2833.165487	1.1990159	1	1	1	9	1	1	3	n/a	n/a	n/a	n/a
2834.364502	1.1999479	1	2	1	9	1	2	3	n/a	n/a	n/a	n/a
2835.56445	1.199898	1	3	1	9	1	3	3	n/a	n/a	n/a	n/a
2836.764348	1.1998329	1	4	1	9	1	4	3	n/a	n/a	n/a	n/a
2837.964181	1.1998962	1	5	1	9	1	5	3	n/a	n/a	n/a	n/a
2839.164077	1.1998361	1	6	1	9	1	6	3	n/a	n/a	n/a	n/a
2840.363913	1.199845	1	7	1	9	1	7	3	n/a	n/a	n/a	n/a
2841.563758	1.1998419	1	8	1	9	1	8	3	n/a	n/a	n/a	n/a
2842.7636	1.1998622	1	9	1	9	1	9	3	n/a	n/a	n/a	n/a
2843.963463	1.1998899	1	10	1	9	1	10	3	n/a	n/a	n/a	n/a
2845.163353	1.1998111	1	11	1	9	1	11	3	n/a	n/a	n/a	n/a
2846.363164	1.1998955	1	12	1	9	1	12	3	n/a	n/a	n/a	n/a
2847.563059	1.1998507	1	13	1	9	1	13	3	n/a	n/a	n/a	n/a
2848.76291	1.1998212	1	14	1	9	1	14	3	n/a	n/a	n/a	n/a
2849.962731	1.1998035	1	15	1	9	1	15	3	n/a	n/a	n/a	n/a
2851.162535	1.19987	1	16	1	9	1	16	3	n/a	n/a	n/a	n/a
2852.362405	1.1998381	1	17	1	1	2	1	1	9	n/a	2852.762498	n/a
2853.562243	1.1999422	1	18	1	1	2	2	2	9	n/a	2853.962329	n/a
2854.762185	1.199922453	1	19	1	1	2	3	2	9	n/a	2855.162047	n/a
2855.962107	1.199694247	1	20	1	1	2	4	1	9	0	2856.361945	-0.0683006
2857.161801	1.199849	1	21	1	1	2	5	1	10	0	2857.561833	0.4040964
2858.36165	1.1999141	1	22	1	1	2	6	2	11	1	2858.761749	0.7106929702
2859.561565	1.199847	1	23	1	1	2	7	2	11	1	2859.961507	0.5299683
2860.761412	1.199767	1	24	1	1	2	8	2	11	1	2861.161385	0.6307288
2861.961179	1.199927	1	25	1	1	2	9	1	10	1	2862.361079	0.627772
2863.161106	1.1998904	1	26	1	1	2	10	1	10	1	2863.561063	0.7106501
2864.360996	1.1998546	1	27	1	1	2	11	1	10	1	2864.761028	0.6101959
2865.560851	1.1998804	1	28	1	1	2	12	2	9	n/a	2865.960688	n/a
2866.760731	1.1998377	1	29	1	1	2	13	2	9	1	2867.160651	0.7108093
2867.960569	1.1997564	1	30	1	1	2	14	1	9	n/a	2868.360598	n/a
2869.160325	1.1999816	1	31	1	1	2	15	1	9	n/a	2869.560287	n/a
2870.360307	1.1997889	1	32	1	1	2	16	1	9	1	2870.760209	0.626989
2871.560096	1.19997093	1	33	1	1	2	17	1	9	n/a	2871.96016	n/a
2872.760067	1.19974607	1	34	1	1	2	18	1	9	1	2873.159948	0.7344136
2873.959813	1.1998101	1	35	1	1	2	19	1	8	1	2874.359767	0.6293899
2875.159623	1.1999202	1	36	1	1	2	20	2	8	1	2875.559605	0.629823
2876.359543	1.1998469	1	37	1	1	2	21	2	8	n/a	2876.759488	n/a
2877.55939	1.1998361	1	38	1	1	2	22	2	8	n/a	2877.959223	n/a
2878.759226	1.1998548	1	39	1	1	2	23	2	8	n/a	2879.159158	n/a
2879.959081	1.1998879	1	40	1	1	2	24	2	8	1	2880.359069	0.7109299
2881.158969	1.199773	1	41	1	1	2	25	2	7	n/a	2881.558894	n/a
2882.358742	1.1998203	1	42	1	1	2	26	2	7	n/a	2882.758708	n/a
2883.558562	1.199958	1	43	1	1	2	27	1	7	n/a	2883.958601	n/a
2884.75852	1.1998488	1	44	1	1	2	28	2	7	1	2885.15855	0.3281430639
2885.958369	1.199867	1	45	1	1	2	29	1	7	n/a	2886.358339	n/a
2887.158236	1.1998559	1	46	1	1	2	30	2	7	n/a	2887.55818	n/a
2888.358092	1.1998142	1	47	1	1	2	31	1	7	1	2888.758029	0.7093173
2889.557906	1.1998692	1	48	1	1	2	32	2	7	1	2889.957864	0.7266896
2890.757775	1.1998224	1	49	1	9	3	1	3	n/a	n/a	n/a	n/a
2891.957597	1.1998681	1	50	1	9	3	2	3	n/a	n/a	n/a	n/a
2893.157465	1.1998947	1	51	1	9	3	3	3	n/a	n/a	n/a	n/a
2894.35736	1.1997415	1	52	1	9	3	4	3	n/a	n/a	n/a	n/a
2895.557102	1.199815	1	53	1	9	3	5	3	n/a	n/a	n/a	n/a
2896.756917	1.1998981	1	54	1	9	3	6	3	n/a	n/a	n/a	n/a
2897.956815	1.1997759	1	55	1	9	3	7	3	n/a	n/a	n/a	n/a
2899.156591	1.1999451	1	56	1	9	3	8	3	n/a	n/a	n/a	n/a
2900.356536	1.1999025	1	57	1	9	3	9	3	n/a	n/a	n/a	n/a
2901.556438	1.1998958	1	58	1	9	3	10	3	n/a	n/a	n/a	n/a
2902.756334	1.1997862	1	59	1	9	3	11	3	n/a	n/a	n/a	n/a
2903.95612	1.1999278	1	60	1	9	3	12	3	n/a	n/a	n/a	n/a
2905.156048	1.1997699	1	61	1	9	3	13	3	n/a	n/a	n/a	n/a
2906.355818	1.1998888	1	62	1	9	3	14	3	n/a	n/a	n/a	n/a
2907.555707	1.199965906	1	63	1	9	3	15	3	n/a	n/a	n/a	n/a
2908.755673	1.199674794	1	64	1	9	3	16	3	n/a	n/a	n/a	n/a
2909.955347	1.1999095	1	65	1	3	4	1	2	6	n/a	2910.355295	n/a
2911.155257	1.1998879	1	66	1	3	4	2	2	6	n/a	2911.555137	n/a
2912.355145	1.199717	1	67	1	3	4	3	2	6	n/a	2912.754974	n/a
2913.554862	1.1999247	1	68	1	3	4	4	2	6	1	2913.954946	0.4503841
2914.754787	1.1999052	1	69	1	3	4	5	1	6	1	2915.154791	0.6176934
2915.954692	1.199864	1	70	1	3	4	6	2	6	1	2916.354568	0.7226296
2917.154556	1.1996995	1	71	1	3	4	7	2	5	1	2917.554397	0.6100695
2918.354255	1.2000151	1	72	1	3	4	8	1	5	1	2918.754401	0.5108634
2919.55427	1.1998734	1	73	1	3	4	9	1	5	0	2919.954214	0.637065
2920.754144	1.199823	1	74	1	3	4	10	1	6	n/a	2921.153997	n/a
2921.953967	1.199727	1	75	1	3	4	11	2	6	1	2922.353915	0.6200377
2923.153694	1.1998573	1	76	1	3	4	12	2	6	1	2923.553736	0.6187755
2924.353551	1.2000488	1	77	1	3	4	13	2	6	1	2924.75362	0.7267408
2925.5536	1.1997723	1	78	1	3	4	14	2	5	1	2925.953365	0.7302681
2926.753372	1.1998522	1	79	1	3	4	15	2	5	1	2927.153353	0.6183651
2927.953224	1.1998529	1	80	1	3	4	16	2	5	1	2928.353168	0.7251407
2929.153077	1.1997243	1	81	1	3	4	17	2	4	n/a	2929.553031	n/a
2930.352802	1.1998644	1	82	1	3	4	18	1	4	1	2930.752837	0.6119639
2931.552666	1.2000243	1	83	1	3	4	19	1	4	n/a	2931.952747	n/a
2932.75269	1.1997989	1	84	1	3	4	20	1	4	n/a	2933.152519	n/a
2933.952489	1.19988	1	85	1	3	4	21	2	4	n/a	2934.352458	n/a
2935.152369	1.1998583	1	86	1	3	4	22	1	4	1	2935.552289	0.1475674
2936.352228	1.1998057	1	87	1	3	4	23	1	4	0	2936.752125	0.1477089
2937.552033	1.1998989	1	88	1	3	4	24	2	5	1	2937.952006	0.4270757
2938.751932	1.1997861	1	89	1	3	4	25	2	5	1	2939.151842	0.6405621
2939.951718	1.1999296	1	90	1	3	4	26	1	5	n/a	2940.351628	n/a
2941.151648	1.1998207	1	91	1	3	4	27	1	5	n/a	2941.551649	n/a
2942.351469	1.1998417	1	92	1	3	4	28	2	5	1	2942.751289	0.1505792
2943.55131	1.1997342	1	93	1	3	4	29	2	4	0	2943.951214	0.4540766
2944.751044	1.1998641	1	94	1	3	4	30	1	5	n/a	2945.15111	n/a
2945.950908	1.2000048	1	95	1	3	4	31	1	5	n/a	2946.35087	n/a
2947.150913	1.1998351	1	96	1	3	4	32	1	5	n/a	2947.550794	n/a
2948.350748	1.19982	1	97	1	9	5	1	3	n/a	n/a	n/a	n/a
2949.550568	1.1998727	1	98	1	9	5	2	3	n/a	n/a	n/a	n/a
2950.750441	1.199811	1	99	1	9	5	3	3	n/a	n/a	n/a	n/a
2951.950252	1.1998368	1	100	1	9	5	4	3	n/a	n/a	n/a	n/a
2953.150089	1.1998581	1	101	1	9	5	5	3	n/a	n/a	n/a	n/a
2954.349947	1.1998744	1	102	1	9	5	6	3	n/a	n/a	n/a	n/a
2955.549821	1.1999518	1	103	1	9	5	7	3	n/a	n/a	n/a	n/a
2956.749773	1.1996728	1	104	1	9	5	8	3	n/a	n/a	n/a	n/a
2957.949446	1.1999575	1	105	1	9	5	9	3	n/a	n/a	n/a	n/a
2959.149404	1.1998677	1	106	1	9	5	10	3	n/a	n/a	n/a	n/a
2960.349271	1.1998572	1	107	1	9	5	11	3	n/a	n/a	n/a	n/a
2961.549128	1.1998361	1	108	1	9	5	12	3	n/a	n/a	n/a	n/a
2962.748965	1.1998014	1	109	1	9	5	13	3	n/a	n/a	n/a	n/a
2963.948766	1.1998819	1	110	1	9	5	14	3	n/a	n/a	n/a	n/a
2965.148648	1.1998727	1	111	1	9	5	15	3	n/a	n/a	n/a	n/a
2966.348521	1.1998739	1	112	1	9	5	16	3	n/a	n/a	n/a	n/a
2967.548394	1.199827	1	113	1	5	6	1	2	5	1	2967.948306	0.7213967
2968.748221	1.1998565	1	114	1	5	6	2	1	5	n/a	2969.14815	n/a
2969.948078	1.1998637	1	115	1	5	6	3	2	5	n/a	2970.348051	n/a
2971.147942	1.1998882	1	116	1	5	6	4	2	5	n/a	2971.547865	n/a
2972.34783	1.1998426	1	117	1	5	6	5	2	5	0	2972.747803	0.7226734
2973.547672	1.1997965	1	118	1	5	6	6	1	6	n/a	2973.947595	n/a
2974.747469	1.1997568	1	119	1	5	6	7	2	6	1	2975.14732	0.7230658
2975.947226	1.1999924	1	120	1	5	6	8	1	6	1	2976.347335	0.7112498
2977.147218	1.199776	1	121	1	5	6	9	1	6	1	2977.547183	0.4381311
2978.346994	1.1999513	1	122	1	5	6	10	2	5	0	2978.747115	0.5171546405
2979.546945	1.1996597	1	123	1	5	6	11	2	6	1	2979.946902	0.7229202
2980.746605	1.200111153	1	124	1	5	6	12	1	6	1	2981.146711	0.7110095
2981.946716	1.199750747	1	125	1	5	6	13	1	6	1	2982.346565	0.6074139
2983.146467	1.1998455	1	126	1	5	6	14	2	5	1	2983.546423	0.5078663
2984.346312	1.199834	1	127	1	5	6	15	1	5	1	2984.746277	0.6169084
2985.546146	1.1998115	1	128	1	5	6	16	2	5	1	2985.946086	0.5173635
2986.745958	1.1999791	1	129	1	5	6	17	1	4	1	2987.145826	0.5171749
2987.945937	1.1996811	1	130	1	5	6	18	2	4	1	2988.345813	0.4384946
2989.145618	1.1999603	1	131	1	5	6	19	1	4	0	2989.545681	0.5178335
2990.345579	1.1998455	1	132	1	5	6	20	1	5	n/a	2990.745424	n/a
2991.545424	1.1998386	1	133	1	5	6	21	2	5	1	2991.945396	0.1395518
2992.745263	1.199903	1	134	1	5	6	22	1	5	1	2993.145194	0.0377298
2993.945166	1.1997812	1	135	1	5	6	23	1	5	n/a	2994.345025	n/a
2995.144947	1.1998925	1	136	1	5	6	24	2	5	1	2995.545003	0.5173321
2996.344839	1.1998811	1	137	1	5	6	25	1	4	1	2996.744838	0.7114391
2997.54472	1.199763	1	138	1	5	6	26	1	4	1	2997.944745	0.7228008468
2998.744483	1.1999035	1	139	1	5	6	27	1	4	0	2999.144461	0.7232954
2999.944387	1.1998588	1	140	1	5	6	28	1	5	n/a	3000.344419	n/a
3001.144246	1.1999179	1	141	1	5	6	29	2	5	n/a	3001.544203	n/a
3002.344164	1.1998812	1	142	1	5	6	30	1	5	n/a	3002.744024	n/a
3003.544045	1.1998065	1	143	1	5	6	31	2	5	n/a	3003.943896	n/a
3004.743851	1.1998709	1	144	1	5	6	32	2	5	n/a	3005.143749	n/a
3005.943722	1.1997991	1	145	1	9	7	1	3	n/a	n/a	n/a	n/a
3007.143521	1.199819	1	146	1	9	7	2	3	n/a	n/a	n/a	n/a
3008.34334	1.1998311	1	147	1	9	7	3	3	n/a	n/a	n/a	n/a
3009.543171	1.1999195	1	148	1	9	7	4	3	n/a	n/a	n/a	n/a
3010.743091	1.1997035	1	149	1	9	7	5	3	n/a	n/a	n/a	n/a
3011.942794	1.199953	1	150	1	9	7	6	3	n/a	n/a	n/a	n/a
3013.142747	1.1998091	1	151	1	9	7	7	3	n/a	n/a	n/a	n/a
3014.342556	1.1998725	1	152	1	9	7	8	3	n/a	n/a	n/a	n/a
3015.542429	1.1999512	1	153	1	9	7	9	3	n/a	n/a	n/a	n/a
3016.74238	1.1997709	1	154	1	9	7	10	3	n/a	n/a	n/a	n/a
3017.942151	1.1998412	1	155	1	9	7	11	3	n/a	n/a	n/a	n/a
3019.141992	1.1999607	1	156	1	9	7	12	3	n/a	n/a	n/a	n/a
3020.341953	1.1997813	1	157	1	9	7	13	3	n/a	n/a	n/a	n/a
3021.541734	1.1998699	1	158	1	9	7	14	3	n/a	n/a	n/a	n/a
3022.741604	1.1998452	1	159	1	9	7	15	3	n/a	n/a	n/a	n/a
3023.941449	1.1998225	1	160	1	9	7	16	3	n/a	n/a	n/a	n/a
3025.141272	1.1997672	1	161	1	7	8	1	2	5	1	3025.541237	0.6156975
3026.341039	1.1999558	1	162	1	7	8	2	1	5	0	3026.741071	0.7238067
3027.540995	1.1997205	1	163	1	7	8	3	2	6	n/a	3027.941054	n/a
3028.740715	1.1999886	1	164	1	7	8	4	2	6	0	3029.140799	0.4348222
3029.940704	1.1997754	1	165	1	7	8	5	1	7	0	3030.340662	0.4241899
3031.140479	1.1999151	1	166	1	7	8	6	1	8	1	3031.540479	0.6160485
3032.340395	1.1998279	1	167	1	7	8	7	1	8	1	3032.740456	0.7241966234
3033.540222	1.1997963	1	168	1	7	8	8	1	8	1	3033.940193	0.6171015
3034.740019	1.200030749	1	169	1	7	8	9	1	7	1	3035.140086	0.7184936
3035.940049	1.199775651	1	170	1	7	8	10	1	7	n/a	3036.339904	n/a
3037.139825	1.1998582	1	171	1	7	8	11	1	7	n/a	3037.539756	n/a
3038.339683	1.1998047	1	172	1	7	8	12	2	7	1	3038.739473	0.5201643
3039.539488	1.1999	1	173	1	7	8	13	2	7	1	3039.939338	0.6176578
3040.739388	1.1999052	1	174	1	7	8	14	2	6	1	3041.139316	0.6174643
3041.939293	1.1997491	1	175	1	7	8	15	1	6	1	3042.339176	0.4245562
3043.139042	1.1997544	1	176	1	7	8	16	2	6	1	3043.539107	0.4260225512
3044.338797	1.1999635	1	177	1	7	8	17	1	5	1	3044.738831	0.5184624
3045.53876	1.1998488	1	178	1	7	8	18	2	5	1	3045.938686	0.4429855
3046.738609	1.1998724	1	179	1	7	8	19	1	5	1	3047.138591	0.6175719
3047.938481	1.1998075	1	180	1	7	8	20	2	4	1	3048.338424	0.5102559
3049.138289	1.1998032	1	181	1	7	8	21	1	4	n/a	3049.538147	n/a
3050.338092	1.1999004	1	182	1	7	8	22	1	4	n/a	3050.738108	n/a
3051.537993	1.1998921	1	183	1	7	8	23	2	4	n/a	3051.937936	n/a
3052.737885	1.1998452	1	184	1	7	8	24	1	4	n/a	3053.137827	n/a
3053.93773	1.1998472	1	185	1	7	8	25	2	4	n/a	3054.337643	n/a
3055.137577	1.1998675	1	186	1	7	8	26	1	4	n/a	3055.537447	n/a
3056.337444	1.1997894	1	187	1	7	8	27	2	4	n/a	3056.737335	n/a
3057.537234	1.1998635	1	188	1	7	8	28	2	4	1	3057.937231	0.7195387
3058.737097	1.1997422	1	189	1	7	8	29	1	4	0	3059.137193	0.61716
3059.93684	1.1998727	1	190	1	7	8	30	1	5	1	3060.336955	0.2402926
3061.136712	1.1999622	1	191	1	7	8	31	2	5	1	3061.536778	0.036891
3062.336674	1.1998327	1	192	1	7	8	32	1	5	n/a	3062.736661	n/a
3063.536507	1.1997955	1	193	1	9	9	1	3	n/a	n/a	n/a	n/a
3064.736303	1.1999824	1	194	1	9	9	2	3	n/a	n/a	n/a	n/a
3065.936285	1.1998097	1	195	1	9	9	3	3	n/a	n/a	n/a	n/a
3067.136095	1.1998849	1	196	1	9	9	4	3	n/a	n/a	n/a	n/a
3068.33598	1.1998207	1	197	1	9	9	5	3	n/a	n/a	n/a	n/a
3069.5358	1.1998345	1	198	1	9	9	6	3	n/a	n/a	n/a	n/a
3070.735635	1.199866	1	199	1	9	9	7	3	n/a	n/a	n/a	n/a
3071.935501	1.1999212	1	200	1	9	9	8	3	n/a	n/a	n/a	n/a
3073.135422	1.199799	1	201	1	9	9	9	3	n/a	n/a	n/a	n/a
3074.335221	1.1997801	1	202	1	9	9	10	3	n/a	n/a	n/a	n/a
3075.535001	1.199794	1	203	1	9	9	11	3	n/a	n/a	n/a	n/a
3076.734795	1.1999831	1	204	1	9	9	12	3	n/a	n/a	n/a	n/a
3077.934778	1.1998422	1	205	1	9	9	13	3	n/a	n/a	n/a	n/a
3079.13462	1.1998614	1	206	1	9	9	14	3	n/a	n/a	n/a	n/a
3080.334482	1.1998385	1	207	1	9	9	15	3	n/a	n/a	n/a	n/a
3081.53432	1.1998603	1	208	1	9	9	16	3	n/a	n/a	n/a	n/a
