onset	duration	run_number	trial_number	att_task	bar_direction	bar_period	bar_step	stim_noise_ori	stim_stair_val	response_val	probe_time	reaction_time
2164.155181	1.1994008	1	1	1	9	1	1	3	n/a	n/a	n/a	n/a
2165.354582	1.1998934	1	2	1	9	1	2	3	n/a	n/a	n/a	n/a
2166.554476	1.1998168	1	3	1	9	1	3	3	n/a	n/a	n/a	n/a
2167.754292	1.1997994	1	4	1	9	1	4	3	n/a	n/a	n/a	n/a
2168.954092	1.1999264	1	5	1	9	1	5	3	n/a	n/a	n/a	n/a
2170.154018	1.1998184	1	6	1	9	1	6	3	n/a	n/a	n/a	n/a
2171.353836	1.1998342	1	7	1	9	1	7	3	n/a	n/a	n/a	n/a
2172.553671	1.199847	1	8	1	9	1	8	3	n/a	n/a	n/a	n/a
2173.753518	1.1998993	1	9	1	9	1	9	3	n/a	n/a	n/a	n/a
2174.953417	1.199839	1	10	1	9	1	10	3	n/a	n/a	n/a	n/a
2176.153256	1.1998481	1	11	1	9	1	11	3	n/a	n/a	n/a	n/a
2177.353104	1.1998653	1	12	1	9	1	12	3	n/a	n/a	n/a	n/a
2178.552969	1.1998222	1	13	1	9	1	13	3	n/a	n/a	n/a	n/a
2179.752792	1.199996	1	14	1	9	1	14	3	n/a	n/a	n/a	n/a
2180.952788	1.199861322	1	15	1	9	1	15	3	n/a	n/a	n/a	n/a
2182.152649	1.199772278	1	16	1	9	1	16	3	n/a	n/a	n/a	n/a
2183.352421	1.199811	1	17	1	1	2	1	1	9	1	2183.752348	0.727874
2184.552232	1.1999065	1	18	1	1	2	2	2	9	1	2184.952094	0.6290542
2185.752139	1.1998191	1	19	1	1	2	3	2	9	1	2186.152073	0.7110631
2186.951958	1.1998541	1	20	1	1	2	4	2	8	n/a	2187.35185	n/a
2188.151812	1.1998053	1	21	1	1	2	5	2	8	1	2188.551665	0.6301301
2189.351617	1.1999083	1	22	1	1	2	6	1	8	n/a	2189.751726	n/a
2190.551526	1.1998801	1	23	1	1	2	7	1	8	1	2190.951423	0.5312401
2191.751406	1.1998366	1	24	1	1	2	8	2	8	1	2192.151369	0.52779
2192.951242	1.1998928	1	25	1	1	2	9	2	7	1	2193.351172	0.6141687
2194.151135	1.199841	1	26	1	1	2	10	2	7	1	2194.551004	0.5288513
2195.350976	1.1997912	1	27	1	1	2	11	2	7	1	2195.750886	0.6097511
2196.550767	1.1999334	1	28	1	1	2	12	2	6	n/a	2196.950791	n/a
2197.750701	1.1998098	1	29	1	1	2	13	1	6	0	2198.150683	-0.0759582
2198.95051	1.1998835	1	30	1	1	2	14	1	7	0	2199.350414	0.5195191
2200.150394	1.1998046	1	31	1	1	2	15	2	8	1	2200.550187	0.6276458
2201.350198	1.199862	1	32	1	1	2	16	1	8	1	2201.750125	0.4305764
2202.550061	1.1998727	1	33	1	1	2	17	2	8	n/a	2202.950057	n/a
2203.749933	1.1997958	1	34	1	1	2	18	2	8	1	2204.149969	0.6276004
2204.949729	1.1997859	1	35	1	1	2	19	2	7	1	2205.349774	0.4335949
2206.149515	1.2000146	1	36	1	1	2	20	2	7	1	2206.549684	0.6241118445
2207.349529	1.1998199	1	37	1	1	2	21	2	7	0	2207.749465	0.4219701
2208.549349	1.1998509	1	38	1	1	2	22	2	8	1	2208.949192	0.3241201
2209.7492	1.1998141	1	39	1	1	2	23	1	8	1	2210.149128	0.422313
2210.949014	1.1999569	1	40	1	1	2	24	2	8	1	2211.349023	0.409084
2212.148971	1.199892	1	41	1	1	2	25	1	7	1	2212.548901	0.6287902
2213.348863	1.1998243	1	42	1	1	2	26	1	7	1	2213.748825	0.5293705334
2214.548688	1.1997846	1	43	1	1	2	27	2	7	1	2214.948529	0.5226876
2215.748472	1.199854	1	44	1	1	2	28	1	6	1	2216.148324	0.4294516
2216.948326	1.1998755	1	45	1	1	2	29	1	6	1	2217.348314	0.5272018
2218.148202	1.1998583	1	46	1	1	2	30	1	6	1	2218.547975	0.6289361
2219.34806	1.1998192	1	47	1	1	2	31	2	5	1	2219.747944	0.6092736
2220.547879	1.1997262	1	48	1	1	2	32	1	5	1	2220.947793	0.626757
2221.747605	1.1999533	1	49	1	9	3	1	3	n/a	n/a	n/a	n/a
2222.947559	1.1998005	1	50	1	9	3	2	3	n/a	n/a	n/a	n/a
2224.147359	1.1999741	1	51	1	9	3	3	3	n/a	n/a	n/a	n/a
2225.347333	1.1998203	1	52	1	9	3	4	3	n/a	n/a	n/a	n/a
2226.547154	1.1998358	1	53	1	9	3	5	3	n/a	n/a	n/a	n/a
2227.746989	1.1999417	1	54	1	9	3	6	3	n/a	n/a	n/a	n/a
2228.946931	1.199907289	1	55	1	9	3	7	3	n/a	n/a	n/a	n/a
2230.146838	1.199704611	1	56	1	9	3	8	3	n/a	n/a	n/a	n/a
2231.346543	1.1998919	1	57	1	9	3	9	3	n/a	n/a	n/a	n/a
2232.546435	1.1998715	1	58	1	9	3	10	3	n/a	n/a	n/a	n/a
2233.746306	1.1998827	1	59	1	9	3	11	3	n/a	n/a	n/a	n/a
2234.946189	1.1997428	1	60	1	9	3	12	3	n/a	n/a	n/a	n/a
2236.145932	1.1999295	1	61	1	9	3	13	3	n/a	n/a	n/a	n/a
2237.345861	1.1998876	1	62	1	9	3	14	3	n/a	n/a	n/a	n/a
2238.545749	1.1998052	1	63	1	9	3	15	3	n/a	n/a	n/a	n/a
2239.745554	1.1998703	1	64	1	9	3	16	3	n/a	n/a	n/a	n/a
2240.945425	1.1998884	1	65	1	3	4	1	1	5	1	2241.34541	0.5183833
2242.145313	1.1998123	1	66	1	3	4	2	1	4	n/a	2242.545105	n/a
2243.345125	1.1998793	1	67	1	3	4	3	2	4	1	2243.745086	-0.0596304
2244.545004	1.1999087	1	68	1	3	4	4	1	4	n/a	2244.944932	n/a
2245.744913	1.1997175	1	69	1	3	4	5	2	4	1	2246.144771	0.0266102
2246.944631	1.1998235	1	70	1	3	4	6	1	4	0	2247.344546	0.3095915
2248.144454	1.1998732	1	71	1	3	4	7	2	5	1	2248.544373	0.5399481
2249.344327	1.1998831	1	72	1	3	4	8	2	5	0	2249.74436	0.6388881
2250.544211	1.1997716	1	73	1	3	4	9	1	6	0	2250.944197	0.3336364
2251.743982	1.1999808	1	74	1	3	4	10	1	7	1	2252.144066	0.7149571
2252.943963	1.1998542	1	75	1	3	4	11	1	7	1	2253.344023	0.4295895667
2254.143817	1.1998563	1	76	1	3	4	12	2	7	1	2254.543806	0.5125085
2255.343673	1.1998896	1	77	1	3	4	13	2	6	0	2255.743644	0.5079543
2256.543563	1.1998224	1	78	1	3	4	14	1	7	1	2256.943518	0.4334787
2257.743385	1.1998565	1	79	1	3	4	15	2	7	1	2258.143387	0.3074763
2258.943242	1.1999386	1	80	1	3	4	16	1	7	1	2259.343168	0.4490859
2260.143181	1.1997705	1	81	1	3	4	17	2	6	1	2260.543082	0.3497681
2261.342951	1.199866	1	82	1	3	4	18	1	6	1	2261.742756	0.4244283
2262.542817	1.1998411	1	83	1	3	4	19	1	6	0	2262.942806	0.5241599
2263.742658	1.1998996	1	84	1	3	4	20	2	7	1	2264.14257	0.5120009
2264.942558	1.1996654	1	85	1	3	4	21	1	7	1	2265.342495	0.3392991
2266.142223	1.1999829	1	86	1	3	4	22	2	7	1	2266.542197	0.2183712
2267.342206	1.1998413	1	87	1	3	4	23	1	6	1	2267.742184	0.4488113
2268.542047	1.199998244	1	88	1	3	4	24	1	6	0	2268.942011	0.3375891
2269.742046	1.199768956	1	89	1	3	4	25	1	7	1	2270.14186	0.4238068
2270.941814	1.1998213	1	90	1	3	4	26	1	7	1	2271.3418	0.5372759
2272.141636	1.1998928	1	91	1	3	4	27	1	7	1	2272.541558	0.4234398
2273.341529	1.1998498	1	92	1	3	4	28	1	6	1	2273.741438	0.519345
2274.541378	1.1998459	1	93	1	3	4	29	1	6	1	2274.941304	0.723117
2275.741224	1.1998502	1	94	1	3	4	30	2	6	1	2276.141031	0.5187158
2276.941075	1.1997988	1	95	1	3	4	31	2	5	0	2277.341123	0.3162578222
2278.140873	1.1999399	1	96	1	3	4	32	1	6	1	2278.540875	0.5250151
2279.340813	1.1997548	1	97	1	9	5	1	3	n/a	n/a	n/a	n/a
2280.540568	1.1999039	1	98	1	9	5	2	3	n/a	n/a	n/a	n/a
2281.740472	1.1998688	1	99	1	9	5	3	3	n/a	n/a	n/a	n/a
2282.940341	1.1998764	1	100	1	9	5	4	3	n/a	n/a	n/a	n/a
2284.140217	1.1999469	1	101	1	9	5	5	3	n/a	n/a	n/a	n/a
2285.340164	1.1997082	1	102	1	9	5	6	3	n/a	n/a	n/a	n/a
2286.539872	1.199862	1	103	1	9	5	7	3	n/a	n/a	n/a	n/a
2287.739734	1.1998993	1	104	1	9	5	8	3	n/a	n/a	n/a	n/a
2288.939634	1.199875	1	105	1	9	5	9	3	n/a	n/a	n/a	n/a
2290.139508	1.1997555	1	106	1	9	5	10	3	n/a	n/a	n/a	n/a
2291.339264	1.200021567	1	107	1	9	5	11	3	n/a	n/a	n/a	n/a
2292.539286	1.199730133	1	108	1	9	5	12	3	n/a	n/a	n/a	n/a
2293.739016	1.1998968	1	109	1	9	5	13	3	n/a	n/a	n/a	n/a
2294.938912	1.1998522	1	110	1	9	5	14	3	n/a	n/a	n/a	n/a
2296.138765	1.1998109	1	111	1	9	5	15	3	n/a	n/a	n/a	n/a
2297.338576	1.1998761	1	112	1	9	5	16	3	n/a	n/a	n/a	n/a
2298.538452	1.1998906	1	113	1	5	6	1	2	6	1	2298.938349	0.4397834
2299.738342	1.19985	1	114	1	5	6	2	2	6	0	2300.13822	0.3363613
2300.938192	1.1997977	1	115	1	5	6	3	2	7	n/a	2301.338089	n/a
2302.13799	1.1998832	1	116	1	5	6	4	1	7	1	2302.537955	0.3438008
2303.337873	1.1998555	1	117	1	5	6	5	2	7	1	2303.737804	0.4440793
2304.537729	1.1998851	1	118	1	5	6	6	1	7	1	2304.93767	0.4442629
2305.737614	1.1998239	1	119	1	5	6	7	2	6	1	2306.137397	0.5163988
2306.937438	1.1998541	1	120	1	5	6	8	2	6	1	2307.337374	0.5367225
2308.137292	1.1998881	1	121	1	5	6	9	1	6	1	2308.537264	0.4336156
2309.33718	1.1996834	1	122	1	5	6	10	1	5	1	2309.737091	0.617303
2310.536863	1.1999857	1	123	1	5	6	11	2	5	1	2310.936934	0.5174128
2311.736849	1.1998652	1	124	1	5	6	12	2	5	1	2312.136735	0.6073269
2312.936714	1.1998484	1	125	1	5	6	13	2	4	1	2313.336673	0.61596
2314.136563	1.1998229	1	126	1	5	6	14	2	4	1	2314.536517	0.61799
2315.336385	1.199985	1	127	1	5	6	15	2	4	n/a	2315.736361	n/a
2316.53637	1.1997463	1	128	1	5	6	16	2	4	0	2316.936245	0.7209423
2317.736117	1.1997793	1	129	1	5	6	17	2	5	1	2318.136094	0.5145492
2318.935896	1.1997979	1	130	1	5	6	18	2	5	1	2319.335815	0.5166298
2320.135694	1.1999827	1	131	1	5	6	19	1	5	0	2320.535729	0.5110535
2321.335677	1.1997795	1	132	1	5	6	20	1	6	0	2321.73552	0.4132221
2322.535456	1.1999033	1	133	1	5	6	21	2	7	1	2322.935399	0.6165277
2323.735359	1.1998744	1	134	1	5	6	22	1	7	1	2324.135207	0.4211746
2324.935234	1.1999064	1	135	1	5	6	23	1	7	0	2325.335317	0.514162189
2326.13514	1.1998462	1	136	1	5	6	24	1	8	1	2326.534939	0.6072723
2327.334987	1.1998373	1	137	1	5	6	25	2	8	1	2327.734905	0.6171047
2328.534824	1.1998468	1	138	1	5	6	26	2	8	1	2328.934794	0.7229089
2329.734671	1.1998306	1	139	1	5	6	27	1	7	1	2330.134644	0.5147634
2330.934501	1.199989644	1	140	1	5	6	28	1	7	1	2331.334527	0.5262304
2332.134491	1.199858933	1	141	1	5	6	29	1	7	0	2332.534316	0.6176075
2333.33435	1.199719522	1	142	1	5	6	30	1	8	1	2333.734049	0.4230091
2334.534069	1.1998339	1	143	1	5	6	31	2	8	n/a	2334.934043	n/a
2335.733903	1.1998889	1	144	1	5	6	32	2	8	n/a	2336.133994	n/a
2336.933792	1.1998488	1	145	1	9	7	1	3	n/a	n/a	n/a	n/a
2338.133641	1.1998315	1	146	1	9	7	2	3	n/a	n/a	n/a	n/a
2339.333472	1.1998952	1	147	1	9	7	3	3	n/a	n/a	n/a	n/a
2340.533368	1.1998976	1	148	1	9	7	4	3	n/a	n/a	n/a	n/a
2341.733265	1.1997617	1	149	1	9	7	5	3	n/a	n/a	n/a	n/a
2342.933027	1.1999025	1	150	1	9	7	6	3	n/a	n/a	n/a	n/a
2344.132929	1.1998422	1	151	1	9	7	7	3	n/a	n/a	n/a	n/a
2345.332772	1.1998021	1	152	1	9	7	8	3	n/a	n/a	n/a	n/a
2346.532574	1.1999194	1	153	1	9	7	9	3	n/a	n/a	n/a	n/a
2347.732493	1.1997997	1	154	1	9	7	10	3	n/a	n/a	n/a	n/a
2348.932293	1.19993	1	155	1	9	7	11	3	n/a	n/a	n/a	n/a
2350.132223	1.1998219	1	156	1	9	7	12	3	n/a	n/a	n/a	n/a
2351.332045	1.1999395	1	157	1	9	7	13	3	n/a	n/a	n/a	n/a
2352.531984	1.1998026	1	158	1	9	7	14	3	n/a	n/a	n/a	n/a
2353.731787	1.1997221	1	159	1	9	7	15	3	n/a	n/a	n/a	n/a
2354.931509	1.1999479	1	160	1	9	7	16	3	n/a	n/a	n/a	n/a
2356.131457	1.1998207	1	161	1	7	8	1	1	8	1	2356.531394	0.4416168
2357.331277	1.1999307	1	162	1	7	8	2	1	8	1	2357.731263	0.4115255
2358.531208	1.199826	1	163	1	7	8	3	1	7	1	2358.931194	0.509566
2359.731034	1.1998001	1	164	1	7	8	4	1	7	1	2360.130989	0.5173877
2360.930834	1.1998194	1	165	1	7	8	5	1	7	1	2361.330842	0.6154338
2362.130654	1.1999475	1	166	1	7	8	6	2	6	1	2362.530644	0.5183041
2363.330601	1.199824	1	167	1	7	8	7	1	6	1	2363.73057	0.5181856
2364.530425	1.1998612	1	168	1	7	8	8	2	6	1	2364.930374	0.4230258
2365.730286	1.1998316	1	169	1	7	8	9	2	5	1	2366.130125	0.6140212
2366.930118	1.1998828	1	170	1	7	8	10	2	5	n/a	2367.330052	n/a
2368.130001	1.1998062	1	171	1	7	8	11	1	5	1	2368.529921	0.7182555
2369.329807	1.1997895	1	172	1	7	8	12	2	5	n/a	2369.729771	n/a
2370.529597	1.1999612	1	173	1	7	8	13	1	5	1	2370.929633	0.6146789
2371.729558	1.1998539	1	174	1	7	8	14	1	4	n/a	2372.129472	n/a
2372.929412	1.199887	1	175	1	7	8	15	1	4	1	2373.329396	0.7238711
2374.129299	1.199859	1	176	1	7	8	16	1	4	0	2374.529212	0.5067712
2375.329158	1.1997974	1	177	1	7	8	17	2	5	n/a	2375.72908	n/a
2376.528955	1.1998861	1	178	1	7	8	18	2	5	n/a	2376.928917	n/a
2377.728841	1.1998453	1	179	1	7	8	19	1	5	1	2378.12878	0.7261744
2378.928686	1.199868	1	180	1	7	8	20	2	5	1	2379.328672	0.7468854
2380.128554	1.1998481	1	181	1	7	8	21	1	5	1	2380.528382	0.7236376
2381.328402	1.1998706	1	182	1	7	8	22	2	4	n/a	2381.728348	n/a
2382.528273	1.199839	1	183	1	7	8	23	2	4	n/a	2382.928224	n/a
2383.728112	1.1998638	1	184	1	7	8	24	1	4	n/a	2384.127991	n/a
2384.927976	1.1997794	1	185	1	7	8	25	1	4	n/a	2385.327953	n/a
2386.127755	1.1999313	1	186	1	7	8	26	1	4	0	2386.52765	-0.0499837
2387.327687	1.1998841	1	187	1	7	8	27	2	5	0	2387.72753	0.239764
2388.527571	1.1997761	1	188	1	7	8	28	2	6	n/a	2388.927514	n/a
2389.727347	1.1998495	1	189	1	7	8	29	2	6	1	2390.127316	0.3432915
2390.927196	1.1998709	1	190	1	7	8	30	1	6	1	2391.327149	0.6188592
2392.127067	1.1998176	1	191	1	7	8	31	1	6	0	2392.527068	0.6177112
2393.326885	1.1997934	1	192	1	7	8	32	1	7	1	2393.726875	0.4227977
2394.526678	1.1999595	1	193	1	9	9	1	3	n/a	n/a	n/a	n/a
2395.726638	1.1999189	1	194	1	9	9	2	3	n/a	n/a	n/a	n/a
2396.926557	1.1998078	1	195	1	9	9	3	3	n/a	n/a	n/a	n/a
2398.126364	1.1998539	1	196	1	9	9	4	3	n/a	n/a	n/a	n/a
2399.326218	1.1997409	1	197	1	9	9	5	3	n/a	n/a	n/a	n/a
2400.525959	1.1999185	1	198	1	9	9	6	3	n/a	n/a	n/a	n/a
2401.725878	1.1998926	1	199	1	9	9	7	3	n/a	n/a	n/a	n/a
2402.92577	1.1998211	1	200	1	9	9	8	3	n/a	n/a	n/a	n/a
2404.125591	1.1998376	1	201	1	9	9	9	3	n/a	n/a	n/a	n/a
2405.325429	1.1999147	1	202	1	9	9	10	3	n/a	n/a	n/a	n/a
2406.525344	1.1998717	1	203	1	9	9	11	3	n/a	n/a	n/a	n/a
2407.725215	1.1997917	1	204	1	9	9	12	3	n/a	n/a	n/a	n/a
2408.925007	1.199867	1	205	1	9	9	13	3	n/a	n/a	n/a	n/a
2410.124874	1.1999393	1	206	1	9	9	14	3	n/a	n/a	n/a	n/a
2411.324813	1.1998647	1	207	1	9	9	15	3	n/a	n/a	n/a	n/a
2412.524678	1.1997985	1	208	1	9	9	16	3	n/a	n/a	n/a	n/a
