onset	duration	run_number	trial_number	att_task	bar_direction	bar_period	bar_step	stim_noise_ori	stim_stair_val	response_val	probe_time	reaction_time
193570.0269	1.2007536	1	1	1	9	1	1	3	9	n/a	n/a	n/a
193571.2359	1.1921138	1	2	1	9	1	2	3	9	n/a	n/a	n/a
193572.4364	1.1920583	1	3	1	9	1	3	3	9	n/a	n/a	n/a
193573.6368	1.1920093	1	4	1	9	1	4	3	9	n/a	n/a	n/a
193574.8372	1.1920498	1	5	1	9	1	5	3	9	n/a	n/a	n/a
193576.0381	1.1916521	1	6	1	9	1	6	3	9	n/a	n/a	n/a
193577.238	1.1918736	1	7	1	9	1	7	3	9	n/a	n/a	n/a
193578.4383	1.1923306	1	8	1	9	1	8	3	9	n/a	n/a	n/a
193579.6388	1.192093	1	9	1	9	1	9	3	9	n/a	n/a	n/a
193580.8393	1.1920742	1	10	1	9	1	10	3	9	n/a	n/a	n/a
193582.0398	1.1920782	1	11	1	9	1	11	3	9	n/a	n/a	n/a
193583.2401	1.1920165	1	12	1	9	1	12	3	9	n/a	n/a	n/a
193584.4405	1.1920925	1	13	1	9	1	13	3	9	n/a	n/a	n/a
193585.6409	1.1921678	1	14	1	9	1	14	3	9	n/a	n/a	n/a
193586.8413	1.1920391	1	15	1	9	1	15	3	9	n/a	n/a	n/a
193588.0418	1.1920364	1	16	1	9	1	16	3	9	n/a	n/a	n/a
193589.2524	1.2151786	1	17	1	1	2	1	2	9	n/a	193589.6172	n/a
193590.4759	1.258771	1	18	1	1	2	2	1	9	n/a	193590.8177	n/a
193591.7429	1.2505085	1	19	1	1	2	3	1	9	n/a	193592.0848	n/a
193593.0017	1.1921422	1	20	1	1	2	4	1	9	n/a	193593.3436	n/a
193594.2021	1.2088217	1	21	1	1	2	5	1	9	n/a	193594.544	n/a
193595.4192	1.2087373	1	22	1	1	2	6	2	9	n/a	193595.761	n/a
193596.6362	1.2088256	1	23	1	1	2	7	1	9	n/a	193596.9948	n/a
193597.8533	1.1921767	1	24	1	1	2	8	2	9	n/a	193598.1952	n/a
193599.0539	1.1920088	1	25	1	1	2	9	1	9	n/a	193599.3957	n/a
193600.2542	1.2170784	1	26	1	1	2	10	2	9	n/a	193600.596	n/a
193601.4797	1.2171625	1	27	1	1	2	11	2	9	n/a	193601.8214	n/a
193602.705	1.1921515	1	28	1	1	2	12	1	9	n/a	193603.0469	n/a
193603.9055	1.1920983	1	29	1	1	2	13	1	9	n/a	193604.2472	n/a
193605.1059	1.191998	1	30	1	1	2	14	2	9	n/a	193605.4478	n/a
193606.3062	1.2838322	1	31	1	1	2	15	2	9	n/a	193606.648	n/a
193607.5984	1.275421	1	32	1	1	2	16	1	9	n/a	193607.9402	n/a
193608.8821	1.1921038	1	33	1	1	2	17	1	9	n/a	193609.2239	n/a
193610.0826	1.2087369	1	34	1	1	2	18	2	9	n/a	193610.4243	n/a
193611.2997	1.1921355	1	35	1	1	2	19	1	9	n/a	193611.6414	n/a
193612.5	1.2088226	1	36	1	1	2	20	2	9	n/a	193612.8419	n/a
193613.7171	1.1920923	1	37	1	1	2	21	2	9	n/a	193614.059	n/a
193614.9176	1.2753832	1	38	1	1	2	22	2	9	n/a	193615.2594	n/a
193616.2013	1.2087764	1	39	1	1	2	23	1	9	n/a	193616.5431	n/a
193617.4183	1.192204	1	40	1	1	2	24	1	9	n/a	193617.7602	n/a
193618.6188	1.2838824	1	41	1	1	2	25	2	9	n/a	193618.9607	n/a
193619.9109	1.2254337	1	42	1	1	2	26	2	9	n/a	193620.2694	n/a
193621.1448	1.2586252	1	43	1	1	2	27	2	9	n/a	193621.4865	n/a
193622.4119	1.2086816	1	44	1	1	2	28	2	9	n/a	193622.7536	n/a
193623.6289	1.192029	1	45	1	1	2	29	1	9	n/a	193623.9708	n/a
193624.8293	1.2087024	1	46	1	1	2	30	2	9	n/a	193625.1711	n/a
193626.0463	1.1920894	1	47	1	1	2	31	2	9	n/a	193626.3882	n/a
193627.2469	1.208668	1	48	1	1	2	32	1	9	n/a	193627.6052	n/a
193628.4713	1.1929464	1	49	1	9	3	1	3	9	n/a	n/a	n/a
193629.6726	1.1920709	1	50	1	9	3	2	3	9	n/a	n/a	n/a
193630.873	1.1920579	1	51	1	9	3	3	3	9	n/a	n/a	n/a
193632.0735	1.1920298	1	52	1	9	3	4	3	9	n/a	n/a	n/a
193633.2738	1.1921197	1	53	1	9	3	5	3	9	n/a	n/a	n/a
193634.4742	1.1921336	1	54	1	9	3	6	3	9	n/a	n/a	n/a
193635.6747	1.1919562	1	55	1	9	3	7	3	9	n/a	n/a	n/a
193636.8749	1.1922665	1	56	1	9	3	8	3	9	n/a	n/a	n/a
193638.0755	1.1920301	1	57	1	9	3	9	3	9	n/a	n/a	n/a
193639.2759	1.1921154	1	58	1	9	3	10	3	9	n/a	n/a	n/a
193640.4763	1.1921817	1	59	1	9	3	11	3	9	n/a	n/a	n/a
193641.6768	1.1920354	1	60	1	9	3	12	3	9	n/a	n/a	n/a
193642.8771	1.1921128	1	61	1	9	3	13	3	9	n/a	n/a	n/a
193644.0776	1.1921043	1	62	1	9	3	14	3	9	n/a	n/a	n/a
193645.278	1.1920363	1	63	1	9	3	15	3	9	n/a	n/a	n/a
193646.4784	1.1920508	1	64	1	9	3	16	3	9	n/a	n/a	n/a
193647.689	1.2319095	1	65	1	3	4	1	2	9	n/a	193648.0539	n/a
193648.9292	1.191995	1	66	1	3	4	2	1	9	n/a	193649.271	n/a
193650.1295	1.217298	1	67	1	3	4	3	2	9	n/a	193650.4714	n/a
193651.355	1.1920862	1	68	1	3	4	4	1	9	n/a	193651.6969	n/a
193652.5555	1.2087358	1	69	1	3	4	5	2	9	n/a	193652.8972	n/a
193653.7725	1.2087395	1	70	1	3	4	6	1	9	n/a	193654.1143	n/a
193654.9896	1.2337617	1	71	1	3	4	7	2	9	n/a	193655.3564	n/a
193656.2318	1.2503295	1	72	1	3	4	8	2	9	n/a	193656.5735	n/a
193657.4904	1.1921548	1	73	1	3	4	9	2	9	n/a	193657.8322	n/a
193658.691	1.2086841	1	74	1	3	4	10	1	9	n/a	193659.0327	n/a
193659.908	1.2170596	1	75	1	3	4	11	1	9	n/a	193660.2498	n/a
193661.1334	1.2087336	1	76	1	3	4	12	1	9	n/a	193661.4752	n/a
193662.3504	1.1920711	1	77	1	3	4	13	2	9	n/a	193662.6922	n/a
193663.5508	1.192233	1	78	1	3	4	14	1	9	n/a	193663.8927	n/a
193664.7512	1.2921439	1	79	1	3	4	15	1	9	n/a	193665.0931	n/a
193666.0518	1.1920945	1	80	1	3	4	16	1	9	n/a	193666.3935	n/a
193667.2521	1.1920896	1	81	1	3	4	17	2	9	n/a	193667.594	n/a
193668.4525	1.292157	1	82	1	3	4	18	1	9	n/a	193668.7942	n/a
193669.7531	1.1920117	1	83	1	3	4	19	1	9	n/a	193670.0948	n/a
193670.9534	1.2087304	1	84	1	3	4	20	1	9	n/a	193671.2952	n/a
193672.1705	1.1921536	1	85	1	3	4	21	2	9	n/a	193672.5123	n/a
193673.3709	1.275422	1	86	1	3	4	22	2	9	n/a	193673.7129	n/a
193674.6547	1.2087229	1	87	1	3	4	23	2	9	n/a	193674.9964	n/a
193675.8718	1.3004205	1	88	1	3	4	24	2	9	n/a	193676.2136	n/a
193677.1805	1.2088077	1	89	1	3	4	25	1	9	n/a	193677.5224	n/a
193678.3977	1.2337471	1	90	1	3	4	26	1	9	n/a	193678.7644	n/a
193679.6398	1.2086384	1	91	1	3	4	27	1	9	n/a	193679.9815	n/a
193680.8569	1.2086289	1	92	1	3	4	28	1	9	n/a	193681.1985	n/a
193682.074	1.2836998	1	93	1	3	4	29	1	9	n/a	193682.4158	n/a
193683.3661	1.258813	1	94	1	3	4	30	1	9	n/a	193683.7079	n/a
193684.6331	1.2838981	1	95	1	3	4	31	1	9	n/a	193684.975	n/a
193685.9252	1.2337835	1	96	1	3	4	32	1	9	n/a	193686.2837	n/a
193687.184	1.2003187	1	97	1	9	5	1	3	9	n/a	n/a	n/a
193688.3928	1.1921202	1	98	1	9	5	2	3	9	n/a	n/a	n/a
193689.5931	1.1921017	1	99	1	9	5	3	3	9	n/a	n/a	n/a
193690.7935	1.192154	1	100	1	9	5	4	3	9	n/a	n/a	n/a
193691.994	1.192019	1	101	1	9	5	5	3	9	n/a	n/a	n/a
193693.1943	1.1921558	1	102	1	9	5	6	3	9	n/a	n/a	n/a
193694.3949	1.1920602	1	103	1	9	5	7	3	9	n/a	n/a	n/a
193695.5951	1.1921023	1	104	1	9	5	8	3	9	n/a	n/a	n/a
193696.7956	1.1920861	1	105	1	9	5	9	3	9	n/a	n/a	n/a
193697.9961	1.192053	1	106	1	9	5	10	3	9	n/a	n/a	n/a
193699.1964	1.1920082	1	107	1	9	5	11	3	9	n/a	n/a	n/a
193700.3969	1.1921688	1	108	1	9	5	12	3	9	n/a	n/a	n/a
193701.5972	1.1920529	1	109	1	9	5	13	3	9	n/a	n/a	n/a
193702.7977	1.1920669	1	110	1	9	5	14	3	9	n/a	n/a	n/a
193703.998	1.1921335	1	111	1	9	5	15	3	9	n/a	n/a	n/a
193705.1985	1.1920919	1	112	1	9	5	16	3	9	n/a	n/a	n/a
193706.4166	1.1994613	1	113	1	5	6	1	1	9	n/a	193706.7656	n/a
193707.6242	1.1921527	1	114	1	5	6	2	2	9	n/a	193707.9661	n/a
193708.8248	1.2086415	1	115	1	5	6	3	1	9	n/a	193709.1665	n/a
193710.0419	1.1921243	1	116	1	5	6	4	1	9	n/a	193710.3837	n/a
193711.2422	1.1920939	1	117	1	5	6	5	2	9	n/a	193711.584	n/a
193712.4426	1.1921441	1	118	1	5	6	6	1	9	n/a	193712.7844	n/a
193713.643	1.1921381	1	119	1	5	6	7	2	9	n/a	193713.9849	n/a
193714.8435	1.1920591	1	120	1	5	6	8	2	9	n/a	193715.1853	n/a
193716.044	1.1920834	1	121	1	5	6	9	2	9	n/a	193716.3858	n/a
193717.2443	1.1920723	1	122	1	5	6	10	1	9	n/a	193717.5862	n/a
193718.4446	1.1922087	1	123	1	5	6	11	2	9	n/a	193718.7865	n/a
193719.6451	1.1920547	1	124	1	5	6	12	2	9	n/a	193719.987	n/a
193720.8455	1.1920956	1	125	1	5	6	13	1	9	n/a	193721.1873	n/a
193722.046	1.1921504	1	126	1	5	6	14	1	9	n/a	193722.3877	n/a
193723.2463	1.1920895	1	127	1	5	6	15	2	9	n/a	193723.5881	n/a
193724.4468	1.1920625	1	128	1	5	6	16	2	9	n/a	193724.7886	n/a
193725.6472	1.1920483	1	129	1	5	6	17	2	9	n/a	193725.989	n/a
193726.8475	1.1920616	1	130	1	5	6	18	1	9	n/a	193727.1894	n/a
193728.048	1.192103	1	131	1	5	6	19	2	9	n/a	193728.3898	n/a
193729.2484	1.1920856	1	132	1	5	6	20	1	9	n/a	193729.5902	n/a
193730.4489	1.1922242	1	133	1	5	6	21	1	9	n/a	193730.7907	n/a
193731.6492	1.2088542	1	134	1	5	6	22	1	9	n/a	193731.9911	n/a
193732.8663	1.1921231	1	135	1	5	6	23	2	9	n/a	193733.2081	n/a
193734.0668	1.1921054	1	136	1	5	6	24	2	9	n/a	193734.4085	n/a
193735.2672	1.2088225	1	137	1	5	6	25	1	9	n/a	193735.609	n/a
193736.4842	1.2088467	1	138	1	5	6	26	2	9	n/a	193736.8261	n/a
193737.7013	1.2087775	1	139	1	5	6	27	1	9	n/a	193738.0431	n/a
193738.9184	1.2088203	1	140	1	5	6	28	2	9	n/a	193739.2602	n/a
193740.1354	1.1920761	1	141	1	5	6	29	2	9	n/a	193740.4772	n/a
193741.336	1.1920223	1	142	1	5	6	30	2	9	n/a	193741.6776	n/a
193742.5363	1.2088719	1	143	1	5	6	31	1	9	n/a	193742.8782	n/a
193743.7534	1.1921044	1	144	1	5	6	32	2	9	n/a	193744.0952	n/a
193744.961	1.193164	1	145	1	9	7	1	3	9	n/a	n/a	n/a
193746.1625	1.1920856	1	146	1	9	7	2	3	9	n/a	n/a	n/a
193747.363	1.1919556	1	147	1	9	7	3	3	9	n/a	n/a	n/a
193748.5633	1.1921887	1	148	1	9	7	4	3	9	n/a	n/a	n/a
193749.7637	1.1921581	1	149	1	9	7	5	3	9	n/a	n/a	n/a
193750.9643	1.1920354	1	150	1	9	7	6	3	9	n/a	n/a	n/a
193752.1646	1.1920847	1	151	1	9	7	7	3	9	n/a	n/a	n/a
193753.3651	1.1920608	1	152	1	9	7	8	3	9	n/a	n/a	n/a
193754.5654	1.1921108	1	153	1	9	7	9	3	9	n/a	n/a	n/a
193755.7659	1.191939	1	154	1	9	7	10	3	9	n/a	n/a	n/a
193756.9662	1.1920586	1	155	1	9	7	11	3	9	n/a	n/a	n/a
193758.1668	1.1919904	1	156	1	9	7	12	3	9	n/a	n/a	n/a
193759.3672	1.191971	1	157	1	9	7	13	3	9	n/a	n/a	n/a
193760.5675	1.1920067	1	158	1	9	7	14	3	9	n/a	n/a	n/a
193761.7679	1.1921517	1	159	1	9	7	15	3	9	n/a	n/a	n/a
193762.9683	1.1920981	1	160	1	9	7	16	3	9	n/a	n/a	n/a
193764.1777	1.2164444	1	161	1	7	8	1	2	9	n/a	193764.5189	n/a
193765.4024	1.1921283	1	162	1	7	8	2	1	9	n/a	193765.7442	n/a
193766.6029	1.2087869	1	163	1	7	8	3	1	9	n/a	193766.9447	n/a
193767.82	1.1920363	1	164	1	7	8	4	1	9	n/a	193768.1615	n/a
193769.0204	1.1920468	1	165	1	7	8	5	1	9	n/a	193769.3622	n/a
193770.2208	1.1922174	1	166	1	7	8	6	1	9	n/a	193770.5626	n/a
193771.4211	1.2172007	1	167	1	7	8	7	2	9	n/a	193771.763	n/a
193772.6466	1.1921077	1	168	1	7	8	8	2	9	n/a	193772.9884	n/a
193773.8471	1.1919546	1	169	1	7	8	9	2	9	n/a	193774.1889	n/a
193775.0474	1.2671006	1	170	1	7	8	10	1	9	n/a	193775.3893	n/a
193776.3229	1.1920318	1	171	1	7	8	11	1	9	n/a	193776.6647	n/a
193777.5233	1.2088098	1	172	1	7	8	12	1	9	n/a	193777.8652	n/a
193778.7404	1.1920609	1	173	1	7	8	13	2	9	n/a	193779.0823	n/a
193779.9408	1.1921097	1	174	1	7	8	14	2	9	n/a	193780.2826	n/a
193781.1413	1.1920251	1	175	1	7	8	15	2	9	n/a	193781.483	n/a
193782.3418	1.1919765	1	176	1	7	8	16	1	9	n/a	193782.6834	n/a
193783.5421	1.1919706	1	177	1	7	8	17	1	9	n/a	193783.8838	n/a
193784.7424	1.1920537	1	178	1	7	8	18	2	9	n/a	193785.0842	n/a
193785.9429	1.1921561	1	179	1	7	8	19	2	9	n/a	193786.2846	n/a
193787.1433	1.2087977	1	180	1	7	8	20	2	9	n/a	193787.4851	n/a
193788.3604	1.1920283	1	181	1	7	8	21	2	9	n/a	193788.7021	n/a
193789.5609	1.1920938	1	182	1	7	8	22	1	9	n/a	193789.9026	n/a
193790.7612	1.191992	1	183	1	7	8	23	1	9	n/a	193791.1029	n/a
193791.9615	1.1920885	1	184	1	7	8	24	2	9	n/a	193792.3034	n/a
193793.1621	1.1919906	1	185	1	7	8	25	1	9	n/a	193793.5038	n/a
193794.3624	1.1920609	1	186	1	7	8	26	2	9	n/a	193794.7043	n/a
193795.5628	1.2087905	1	187	1	7	8	27	2	9	n/a	193795.9046	n/a
193796.78	1.2171017	1	188	1	7	8	28	1	9	n/a	193797.1217	n/a
193798.0054	1.2920403	1	189	1	7	8	29	2	9	n/a	193798.3472	n/a
193799.3058	1.1921305	1	190	1	7	8	30	2	9	n/a	193799.6476	n/a
193800.5062	1.2838383	1	191	1	7	8	31	2	9	n/a	193800.848	n/a
193801.7982	1.1921221	1	192	1	7	8	32	2	9	n/a	193802.1401	n/a
193803.0061	1.1931044	1	193	1	9	9	1	3	9	n/a	n/a	n/a
193804.2074	1.1920299	1	194	1	9	9	2	3	9	n/a	n/a	n/a
193805.4079	1.1920673	1	195	1	9	9	3	3	9	n/a	n/a	n/a
193806.6082	1.1920688	1	196	1	9	9	4	3	9	n/a	n/a	n/a
193807.8087	1.1921177	1	197	1	9	9	5	3	9	n/a	n/a	n/a
193809.0091	1.1921079	1	198	1	9	9	6	3	9	n/a	n/a	n/a
193810.2094	1.1920993	1	199	1	9	9	7	3	9	n/a	n/a	n/a
193811.4099	1.1921796	1	200	1	9	9	8	3	9	n/a	n/a	n/a
193812.6103	1.1920457	1	201	1	9	9	9	3	9	n/a	n/a	n/a
193813.8107	1.1920788	1	202	1	9	9	10	3	9	n/a	n/a	n/a
193815.0113	1.192073	1	203	1	9	9	11	3	9	n/a	n/a	n/a
193816.2115	1.1921362	1	204	1	9	9	12	3	9	n/a	n/a	n/a
193817.4121	1.1919689	1	205	1	9	9	13	3	9	n/a	n/a	n/a
193818.6124	1.1920981	1	206	1	9	9	14	3	9	n/a	n/a	n/a
193819.8129	1.1919507	1	207	1	9	9	15	3	9	n/a	n/a	n/a
193821.0133	1.1919959	1	208	1	9	9	16	3	9	n/a	n/a	n/a
