onset	duration	run_number	trial_number	att_task	bar_direction	bar_period	bar_step	stim_noise_ori	stim_stair_val	response_val	probe_time	reaction_time
193054.8323	1.2055654	5	1	1	9	1	1	3	n/a	n/a	n/a	n/a
193056.0379	1.2087632	5	2	1	9	1	2	3	n/a	n/a	n/a	n/a
193057.2466	1.2004042	5	3	1	9	1	3	3	n/a	n/a	n/a	n/a
193058.447	1.2004455	5	4	1	9	1	4	3	n/a	n/a	n/a	n/a
193059.6475	1.2004603	5	5	1	9	1	5	3	n/a	n/a	n/a	n/a
193060.8479	1.2003549	5	6	1	9	1	6	3	n/a	n/a	n/a	n/a
193062.0483	1.2004693	5	7	1	9	1	7	3	n/a	n/a	n/a	n/a
193063.2488	1.200399	5	8	1	9	1	8	3	n/a	n/a	n/a	n/a
193064.4492	1.2003697	5	9	1	9	1	9	3	n/a	n/a	n/a	n/a
193065.6495	1.2004021	5	10	1	9	1	10	3	n/a	n/a	n/a	n/a
193066.8499	1.200412	5	11	1	9	1	11	3	n/a	n/a	n/a	n/a
193068.0503	1.200373	5	12	1	9	1	12	3	n/a	n/a	n/a	n/a
193069.2507	1.2004064	5	13	1	9	1	13	3	n/a	n/a	n/a	n/a
193070.4511	1.2004048	5	14	1	9	1	14	3	n/a	n/a	n/a	n/a
193071.6515	1.200475	5	15	1	9	1	15	3	n/a	n/a	n/a	n/a
193072.852	1.2004346	5	16	1	9	1	16	3	n/a	n/a	n/a	n/a
193074.0524	1.2003721	5	17	1	1	2	1	2	10	1	193074.4525	0.4150346
193075.2528	1.2003691	5	18	1	1	2	2	1	9	1	193075.6529	0.5156632
193076.4532	1.2003946	5	19	1	1	2	3	2	9	1	193076.8533	0.6157881
193077.6536	1.2004519	5	20	1	1	2	4	2	9	1	193078.0538	0.415012
193078.854	1.2003755	5	21	1	1	2	5	1	8	1	193079.2542	0.4155121
193080.0544	1.2004151	5	22	1	1	2	6	1	8	1	193080.4545	0.4358568
193081.2548	1.200482	5	23	1	1	2	7	1	8	0	193081.6549	0.4155288
193082.4553	1.2003599	5	24	1	1	2	8	2	9	1	193082.8554	0.4176077
193083.6557	1.2004316	5	25	1	1	2	9	1	9	1	193084.0558	0.3470188
193084.8561	1.2003619	5	26	1	1	2	10	1	9	1	193085.2562	0.4179374
193086.0565	1.2004459	5	27	1	1	2	11	2	8	1	193086.4566	0.4160855
193087.2569	1.2004125	5	28	1	1	2	12	1	8	1	193087.657	0.5155319
193088.4573	1.2004163	5	29	1	1	2	13	2	8	1	193088.8574	0.515547
193089.6577	1.2003639	5	30	1	1	2	14	2	7	0	193090.0578	0.3351205
193090.8581	1.2004095	5	31	1	1	2	15	2	8	0	193091.2583	0.5142856
193092.0585	1.2004463	5	32	1	1	2	16	1	9	1	193092.4586	0.6145915
193093.2589	1.2003695	5	33	1	1	2	17	1	9	1	193093.659	0.5150932
193094.4593	1.2004477	5	34	1	1	2	18	2	9	0	193094.8595	0.6149665
193095.6598	1.200419	5	35	1	1	2	19	2	10	n/a	193096.06	n/a
193096.8602	1.2003974	5	36	1	1	2	20	1	10	1	193097.2604	0.7142902
193098.0606	1.200413	5	37	1	1	2	21	2	10	n/a	193098.4607	n/a
193099.261	1.2003654	5	38	1	1	2	22	1	10	0	193099.6611	0.6160056
193100.4614	1.2004652	5	39	1	1	2	23	2	11	1	193100.8615	0.7149534
193101.6618	1.2003593	5	40	1	1	2	24	1	11	n/a	193102.0619	n/a
193102.8622	1.2004536	5	41	1	1	2	25	1	11	n/a	193103.2624	n/a
193104.0626	1.2004536	5	42	1	1	2	26	1	11	n/a	193104.4627	n/a
193105.2631	1.200325	5	43	1	1	2	27	1	11	n/a	193105.6632	n/a
193106.4634	1.2004702	5	44	1	1	2	28	2	11	n/a	193106.8635	n/a
193107.6639	1.2003461	5	45	1	1	2	29	2	11	1	193108.064	0.6152151
193108.8642	1.2004084	5	46	1	1	2	30	1	11	1	193109.2644	0.5151514
193110.0646	1.2004132	5	47	1	1	2	31	1	10	1	193110.4649	0.4357953
193111.2651	1.2004484	5	48	1	1	2	32	1	10	0	193111.6652	0.5124746
193112.4655	1.200375	5	49	1	9	3	1	3	n/a	n/a	n/a	n/a
193113.6659	1.200487	5	50	1	9	3	2	3	n/a	n/a	n/a	n/a
193114.8664	1.200363	5	51	1	9	3	3	3	n/a	n/a	n/a	n/a
193116.0667	1.2003791	5	52	1	9	3	4	3	n/a	n/a	n/a	n/a
193117.2671	1.200445	5	53	1	9	3	5	3	n/a	n/a	n/a	n/a
193118.4676	1.2004681	5	54	1	9	3	6	3	n/a	n/a	n/a	n/a
193119.668	1.2003174	5	55	1	9	3	7	3	n/a	n/a	n/a	n/a
193120.8683	1.2004453	5	56	1	9	3	8	3	n/a	n/a	n/a	n/a
193122.0688	1.2004013	5	57	1	9	3	9	3	n/a	n/a	n/a	n/a
193123.2692	1.2003872	5	58	1	9	3	10	3	n/a	n/a	n/a	n/a
193124.4696	1.2003986	5	59	1	9	3	11	3	n/a	n/a	n/a	n/a
193125.67	1.2005037	5	60	1	9	3	12	3	n/a	n/a	n/a	n/a
193126.8705	1.2003684	5	61	1	9	3	13	3	n/a	n/a	n/a	n/a
193128.0708	1.2003944	5	62	1	9	3	14	3	n/a	n/a	n/a	n/a
193129.2712	1.2010304	5	63	1	9	3	15	3	n/a	n/a	n/a	n/a
193130.4723	1.1998583	5	64	1	9	3	16	3	n/a	n/a	n/a	n/a
193131.6721	1.2004433	5	65	1	3	4	1	2	11	0	193132.0723	0.5143706
193132.8726	1.2003047	5	66	1	3	4	2	1	12	1	193133.2726	0.4156208
193134.0729	1.2003733	5	67	1	3	4	3	1	12	1	193134.473	0.4149681
193135.2732	1.2005266	5	68	1	3	4	4	1	12	1	193135.6734	0.5159331
193136.4738	1.2003673	5	69	1	3	4	5	1	11	1	193136.8738	0.6159451
193137.6741	1.2005066	5	70	1	3	4	6	2	11	1	193138.0743	0.4371819
193138.8746	1.2003206	5	71	1	3	4	7	2	11	1	193139.2747	0.5164577
193140.075	1.2004438	5	72	1	3	4	8	2	10	1	193140.4751	0.7158244
193141.2754	1.2003905	5	73	1	3	4	9	2	10	1	193141.6755	0.5160034
193142.4758	1.2004531	5	74	1	3	4	10	1	10	1	193142.876	0.4162332
193143.6763	1.2003757	5	75	1	3	4	11	2	9	1	193144.0763	0.7151464
193144.8766	1.2003802	5	76	1	3	4	12	2	9	n/a	193145.2769	n/a
193146.077	1.200403	5	77	1	3	4	13	2	9	0	193146.4772	0.1453938
193147.2774	1.2003967	5	78	1	3	4	14	2	10	1	193147.6776	0.5161894
193148.4778	1.2004269	5	79	1	3	4	15	2	10	1	193148.878	0.4447013
193149.6782	1.2004537	5	80	1	3	4	16	1	10	1	193150.0784	0.5160318
193150.8787	1.2004095	5	81	1	3	4	17	1	9	1	193151.2788	0.4150807
193152.0791	1.2003476	5	82	1	3	4	18	2	9	1	193152.4792	0.4157131
193153.2794	1.2004291	5	83	1	3	4	19	1	9	1	193153.6796	0.4154669
193154.4799	1.2005115	5	84	1	3	4	20	1	8	1	193154.88	0.51685
193155.6804	1.2002838	5	85	1	3	4	21	1	8	1	193156.0804	0.4416434
193156.8807	1.2004317	5	86	1	3	4	22	1	8	1	193157.281	0.4153337
193158.0811	1.2005673	5	87	1	3	4	23	2	7	0	193158.4812	0.1503607
193159.2817	1.2003034	5	88	1	3	4	24	1	8	1	193159.6816	0.6172526
193160.482	1.2003956	5	89	1	3	4	25	2	8	1	193160.8821	0.4163063
193161.6824	1.2004331	5	90	1	3	4	26	2	8	1	193162.0825	0.5163291
193162.8828	1.2003547	5	91	1	3	4	27	2	7	1	193163.2829	0.5159964
193164.0832	1.2003813	5	92	1	3	4	28	1	7	1	193164.4832	0.5168276
193165.2835	1.2004345	5	93	1	3	4	29	2	7	1	193165.6837	0.3426586
193166.484	1.2004495	5	94	1	3	4	30	1	6	0	193166.8841	0.1451762
193167.6844	1.2004063	5	95	1	3	4	31	1	7	1	193168.0846	0.7147675
193168.8848	1.2003728	5	96	1	3	4	32	2	7	1	193169.2849	0.7145952
193170.0852	1.200501	5	97	1	9	5	1	3	n/a	n/a	n/a	n/a
193171.2857	1.2002855	5	98	1	9	5	2	3	n/a	n/a	n/a	n/a
193172.486	1.2004123	5	99	1	9	5	3	3	n/a	n/a	n/a	n/a
193173.6864	1.2004016	5	100	1	9	5	4	3	n/a	n/a	n/a	n/a
193174.8868	1.2004515	5	101	1	9	5	5	3	n/a	n/a	n/a	n/a
193176.0873	1.2004215	5	102	1	9	5	6	3	n/a	n/a	n/a	n/a
193177.2877	1.2003632	5	103	1	9	5	7	3	n/a	n/a	n/a	n/a
193178.488	1.2004916	5	104	1	9	5	8	3	n/a	n/a	n/a	n/a
193179.6885	1.2003513	5	105	1	9	5	9	3	n/a	n/a	n/a	n/a
193180.8889	1.2003998	5	106	1	9	5	10	3	n/a	n/a	n/a	n/a
193182.0893	1.2003673	5	107	1	9	5	11	3	n/a	n/a	n/a	n/a
193183.2896	1.2004983	5	108	1	9	5	12	3	n/a	n/a	n/a	n/a
193184.4901	1.2003634	5	109	1	9	5	13	3	n/a	n/a	n/a	n/a
193185.6905	1.2004251	5	110	1	9	5	14	3	n/a	n/a	n/a	n/a
193186.8909	1.200387	5	111	1	9	5	15	3	n/a	n/a	n/a	n/a
193188.0913	1.200418	5	112	1	9	5	16	3	n/a	n/a	n/a	n/a
193189.2917	1.2003739	5	113	1	5	6	1	2	7	1	193189.6919	0.5131669
193190.4921	1.200441	5	114	1	5	6	2	2	6	1	193190.8922	0.5135768
193191.6926	1.2003551	5	115	1	5	6	3	2	6	0	193192.0927	0.3149717
193192.8929	1.2004197	5	116	1	5	6	4	1	7	1	193193.293	0.5146968
193194.0933	1.200398	5	117	1	5	6	5	2	7	1	193194.4934	0.4146685
193195.2937	1.2088558	5	118	1	5	6	6	1	7	n/a	193195.6939	n/a
193196.5026	1.2003254	5	119	1	5	6	7	1	7	0	193196.9027	0.6163852
193197.7029	1.2004491	5	120	1	5	6	8	2	8	1	193198.1031	0.5143637
193198.9034	1.2004283	5	121	1	5	6	9	1	8	1	193199.3035	0.5147384
193200.1038	1.2003972	5	122	1	5	6	10	2	8	1	193200.5039	0.4165939
193201.3042	1.2003638	5	123	1	5	6	11	2	7	1	193201.7043	0.3155908
193202.5045	1.2004507	5	124	1	5	6	12	2	7	1	193202.9047	0.2153141
193203.705	1.2004088	5	125	1	5	6	13	2	7	1	193204.1051	0.5143408
193204.9054	1.2004398	5	126	1	5	6	14	1	6	0	193205.3055	0.4141721
193206.1058	1.2003193	5	127	1	5	6	15	2	7	1	193206.5059	0.5150717
193207.3062	1.2004761	5	128	1	5	6	16	2	7	1	193207.7063	0.4372738
193208.5066	1.2004038	5	129	1	5	6	17	2	7	1	193208.9067	0.5152793
193209.707	1.2003751	5	130	1	5	6	18	2	6	1	193210.1072	0.7146921
193210.9074	1.2004193	5	131	1	5	6	19	1	6	1	193211.3076	0.5148764
193212.1078	1.2004522	5	132	1	5	6	20	2	6	1	193212.508	0.7143196
193213.3083	1.2004598	5	133	1	5	6	21	1	5	1	193213.7084	0.6150814
193214.5088	1.2003082	5	134	1	5	6	22	1	5	1	193214.9088	0.7145687
193215.7091	1.2004791	5	135	1	5	6	23	1	5	1	193216.1092	0.5147817
193216.9095	1.2003873	5	136	1	5	6	24	1	4	1	193217.3097	0.3455775
193218.1099	1.2005048	5	137	1	5	6	25	1	4	0	193218.5101	0.03747800001
193219.3104	1.2003042	5	138	1	5	6	26	2	5	1	193219.7105	0.1315339
193220.5107	1.2004125	5	139	1	5	6	27	2	5	0	193220.9108	-0.05911549999
193221.7111	1.2003709	5	140	1	5	6	28	2	6	0	193222.1113	-0.0854139
193222.9115	1.2004601	5	141	1	5	6	29	1	7	1	193223.3117	0.2145755
193224.112	1.2004035	5	142	1	5	6	30	2	7	0	193224.5121	0.7143215
193225.3124	1.2004161	5	143	1	5	6	31	2	8	1	193225.7125	0.3143867
193226.5128	1.2003677	5	144	1	5	6	32	2	8	1	193226.9129	0.7130868
193227.7132	1.2004039	5	145	1	9	7	1	3	n/a	n/a	n/a	n/a
193228.9136	1.2004096	5	146	1	9	7	2	3	n/a	n/a	n/a	n/a
193230.114	1.2004589	5	147	1	9	7	3	3	n/a	n/a	n/a	n/a
193231.3144	1.2003705	5	148	1	9	7	4	3	n/a	n/a	n/a	n/a
193232.5148	1.2004454	5	149	1	9	7	5	3	n/a	n/a	n/a	n/a
193233.7153	1.2004105	5	150	1	9	7	6	3	n/a	n/a	n/a	n/a
193234.9157	1.2003707	5	151	1	9	7	7	3	n/a	n/a	n/a	n/a
193236.116	1.2004478	5	152	1	9	7	8	3	n/a	n/a	n/a	n/a
193237.3165	1.2003781	5	153	1	9	7	9	3	n/a	n/a	n/a	n/a
193238.5169	1.2004029	5	154	1	9	7	10	3	n/a	n/a	n/a	n/a
193239.7173	1.2003971	5	155	1	9	7	11	3	n/a	n/a	n/a	n/a
193240.9177	1.2004612	5	156	1	9	7	12	3	n/a	n/a	n/a	n/a
193242.1181	1.2003561	5	157	1	9	7	13	3	n/a	n/a	n/a	n/a
193243.3185	1.2005134	5	158	1	9	7	14	3	n/a	n/a	n/a	n/a
193244.519	1.2003051	5	159	1	9	7	15	3	n/a	n/a	n/a	n/a
193245.7193	1.2004068	5	160	1	9	7	16	3	n/a	n/a	n/a	n/a
193246.9197	1.2004181	5	161	1	7	8	1	2	8	1	193247.3198	0.3144158
193248.1201	1.2005178	5	162	1	7	8	2	2	7	0	193248.5203	0.4154164
193249.3206	1.2004168	5	163	1	7	8	3	1	8	1	193249.7207	0.6167043
193250.5211	1.2003714	5	164	1	7	8	4	2	8	1	193250.9211	0.5155564
193251.7214	1.2003939	5	165	1	7	8	5	2	8	1	193252.1216	0.716975
193252.9218	1.2004035	5	166	1	7	8	6	2	7	1	193253.322	0.5164965
193254.1222	1.200408	5	167	1	7	8	7	2	7	1	193254.5223	0.515016
193255.3226	1.2004129	5	168	1	7	8	8	1	7	1	193255.7227	0.4152479
193256.523	1.2004505	5	169	1	7	8	9	2	6	1	193256.9232	0.5164276
193257.7235	1.2003469	5	170	1	7	8	10	1	6	1	193258.1236	0.4160917
193258.9238	1.2004082	5	171	1	7	8	11	2	6	1	193259.324	0.6172253
193260.1243	1.2004346	5	172	1	7	8	12	1	5	1	193260.5243	0.7160018
193261.3247	1.2004632	5	173	1	7	8	13	2	5	1	193261.7248	0.516341
193262.5252	1.2003669	5	174	1	7	8	14	2	5	1	193262.9252	0.4161679
193263.7255	1.2003726	5	175	1	7	8	15	2	4	1	193264.1257	0.3166689
193264.9259	1.200483	5	176	1	7	8	16	1	4	1	193265.3261	0.5161005
193266.1264	1.2003269	5	177	1	7	8	17	1	4	0	193266.5265	0.5174674
193267.3267	1.2004134	5	178	1	7	8	18	1	5	1	193267.7269	0.5156157
193268.5271	1.2004447	5	179	1	7	8	19	2	5	1	193268.9274	0.5161485
193269.7276	1.20042	5	180	1	7	8	20	2	5	1	193270.1277	0.716099
193270.928	1.2004014	5	181	1	7	8	21	1	4	1	193271.3281	0.3401451
193272.1284	1.2004218	5	182	1	7	8	22	2	4	1	193272.5285	0.4158088
193273.3288	1.2003663	5	183	1	7	8	23	1	4	1	193273.7289	0.5165998
193274.5292	1.2004422	5	184	1	7	8	24	2	3	0	193274.9294	0.4386289
193275.7296	1.2004286	5	185	1	7	8	25	1	4	n/a	193276.1297	n/a
193276.93	1.2003932	5	186	1	7	8	26	2	4	n/a	193277.3301	n/a
193278.1304	1.2004167	5	187	1	7	8	27	1	4	n/a	193278.5306	n/a
193279.3308	1.2004413	5	188	1	7	8	28	1	4	0	193279.7309	0.3382066
193280.5313	1.200694818	5	189	1	7	8	29	2	5	0	193280.9314	0.1157601
193281.732	1.200134782	5	190	1	7	8	30	1	6	0	193282.1319	-0.08440270001
193282.9321	1.2003629	5	191	1	7	8	31	2	7	1	193283.3322	0.1154041
193284.1325	1.2003789	5	192	1	7	8	32	2	7	n/a	193284.5326	n/a
193285.3329	1.2004483	5	193	1	9	9	1	3	n/a	n/a	n/a	n/a
193286.5333	1.2003716	5	194	1	9	9	2	3	n/a	n/a	n/a	n/a
193287.7337	1.2004491	5	195	1	9	9	3	3	n/a	n/a	n/a	n/a
193288.9341	1.2003712	5	196	1	9	9	4	3	n/a	n/a	n/a	n/a
193290.1345	1.2004482	5	197	1	9	9	5	3	n/a	n/a	n/a	n/a
193291.3349	1.200362	5	198	1	9	9	6	3	n/a	n/a	n/a	n/a
193292.5353	1.200455	5	199	1	9	9	7	3	n/a	n/a	n/a	n/a
193293.7358	1.2004115	5	200	1	9	9	8	3	n/a	n/a	n/a	n/a
193294.9362	1.2003733	5	201	1	9	9	9	3	n/a	n/a	n/a	n/a
193296.1366	1.2004616	5	202	1	9	9	10	3	n/a	n/a	n/a	n/a
193297.337	1.2003967	5	203	1	9	9	11	3	n/a	n/a	n/a	n/a
193298.5374	1.2004124	5	204	1	9	9	12	3	n/a	n/a	n/a	n/a
193299.7378	1.2004075	5	205	1	9	9	13	3	n/a	n/a	n/a	n/a
193300.9382	1.2004108	5	206	1	9	9	14	3	n/a	n/a	n/a	n/a
193302.1386	1.2004578	5	207	1	9	9	15	3	n/a	n/a	n/a	n/a
193303.3391	1.2003629	5	208	1	9	9	16	3	n/a	n/a	n/a	n/a
